workerid,proliferate.condition,accuracy,accuracy_bool,age,alter_ball_visible,alter_can_infer,alter_occluders,ball_pos,bonus,character_choice,collective_ball_visible,collective_can_infer,correct_response,ego_ball_visible,ego_can_infer,ego_occluders,ethnicity,failed_audio,failed_images,failed_video,feedback,gender,internal_node_id,overall_accuracy,race,response,rt,search_locations,stimulus,stimulus_dict,success,time_elapsed,timeout,trial,trial_index,trial_type,view_history,error
347,Experiment 5,,,,,,,,,,,,,,,,,[],[],[],,,0.0-0.0,,,,,,,,True,7816,False,,0,preload,,
347,Experiment 5,,,,,,,,,,,,,,,,,,,,,,0.0-1.0,,,,,,,,True,19106,,,1,fullscreen,,
347,Experiment 5,,,,,,,,,,,,,,,,,,,,,,0.0-2.0,,,0,1911,,"<p><b>Consent Form</b></p> <div style=""text-align:left;background-color:lightgrey; padding:20px; max-width:900px;""><p>Please consider this information carefully before deciding whether to participate in this research.</p> <p>The purpose of this research is to examine which factors influence social judgment and decision-making. You will be asked to make judgements about individuals and actions in social scenarios. We are simply interested in your judgement. The study will take less than 1 hour to complete, and you will receive less than $20 on Prolific. Your compensation and time commitment are specified in the study description. There are no anticipated risks associated with participating in this study. The effects of participating should be comparable to those you would ordinarily experience from viewing a computer monitor and using a mouse or keyboard for a similar amount of time. At the end of the study, we will provide an explanation of the questions that motivate this line of research and will describe the potential implications. </p><p> Your participation in this study is completely voluntary and you may refuse to participate or you may choose to withdraw at any time without penalty or loss of benefits to you which are otherwise entitled. Your participation in this study will remain confidential. No personally identifiable information will be associated with your data. Also, all analyses of the data will be averaged across all the participants, so your individual responses will never be specifically analyzed. </p><p> If you have questions or concerns about your participation or payment, or want to request a summary of research findings, please contact Dr. Jonathan Phillips at Jonathan.S.Phillips@dartmouth.edu. </p><p> Please save a copy of this form for your records. </p><p><b>Agreement: </b>The nature and purpose of this research have been sufficiently explained and I agree to participate in this study. I understand that I am free to withdraw at any time without incurring any penalty. Please consent by clicking the button below to continue. Otherwise, please exit the study at any time. </p>",,,21018,,,2,html-button-response,,
347,Experiment 5,,,,,,,,,,,,,,,,,,,,,,0.0-3.0-0.0,,,,99862,,,,,120881,,intro,3,instructions,"[{'page_index': 0, 'viewing_time': 1026}, {'page_index': 1, 'viewing_time': 1114}, {'page_index': 2, 'viewing_time': 3620}, {'page_index': 3, 'viewing_time': 1438}, {'page_index': 4, 'viewing_time': 2224}, {'page_index': 5, 'viewing_time': 1950}, {'page_index': 6, 'viewing_time': 76948}, {'page_index': 7, 'viewing_time': 1352}, {'page_index': 8, 'viewing_time': 3510}, {'page_index': 9, 'viewing_time': 3042}, {'page_index': 10, 'viewing_time': 2956}, {'page_index': 11, 'viewing_time': 682}]",
347,Experiment 5,True,,,,,,,,0,,,,,,,,,,,,,0.0-3.0-1.0,,,0,3722,,stimuli/0011100.jpg,"{'ball_pos': 0, 'filepath': 'stimuli/0011100.jpg', 'ego_can_infer': True, 'ego_occluders': '100', 'alter_can_infer': True, 'alter_occluders': '011', 'ego_ball_visible': False, 'search_locations': [0], 'alter_ball_visible': True, 'collective_can_infer': True, 'collective_ball_visible': False}",,124604,,prediction_practice,4,image-keyboard-response,,
347,Experiment 5,,,,,,,,,0,,,,,,,,,,,,,0.0-3.0-2.0,,, ,776,,stimuli/00111000.jpg,,,125383,,practrice_feedback,5,image-keyboard-response,,
347,Experiment 5,True,,,,,,,,0,,,,,,,,,,,,,0.0-3.0-3.0,,,0,842,,stimuli/0001010.jpg,"{'ball_pos': 0, 'filepath': 'stimuli/0001010.jpg', 'ego_can_infer': True, 'ego_occluders': '010', 'alter_can_infer': True, 'alter_occluders': '001', 'ego_ball_visible': True, 'search_locations': [0], 'alter_ball_visible': True, 'collective_can_infer': True, 'collective_ball_visible': True}",,126225,,prediction_practice,6,image-keyboard-response,,
347,Experiment 5,,,,,,,,,0,,,,,,,,,,,,,0.0-3.0-4.0,,, ,280,,stimuli/00010100.jpg,,,126506,,practrice_feedback,7,image-keyboard-response,,
347,Experiment 5,False,,,,,,,,0,,,,,,,,,,,,,0.0-3.0-5.0,,,1,1515,,stimuli/0110110.jpg,"{'ball_pos': 0, 'filepath': 'stimuli/0110110.jpg', 'ego_can_infer': False, 'ego_occluders': '110', 'alter_can_infer': False, 'alter_occluders': '110', 'ego_ball_visible': False, 'search_locations': [0], 'alter_ball_visible': False, 'collective_can_infer': False, 'collective_ball_visible': False}",,128021,,prediction_practice,8,image-keyboard-response,,
347,Experiment 5,,,,,,,,,0,,,,,,,,,,,,,0.0-3.0-6.0,,, ,517,,stimuli/01101100.jpg,,,128539,,practrice_feedback,9,image-keyboard-response,,
347,Experiment 5,False,,,,,,,,2,,,,,,,,,,,,,0.0-3.0-7.0,,,1,974,,stimuli/2011111.jpg,"{'ball_pos': 2, 'filepath': 'stimuli/2011111.jpg', 'ego_can_infer': False, 'ego_occluders': '111', 'alter_can_infer': False, 'alter_occluders': '011', 'ego_ball_visible': False, 'search_locations': [2], 'alter_ball_visible': False, 'collective_can_infer': False, 'collective_ball_visible': False}",,129513,,prediction_practice,10,image-keyboard-response,,
347,Experiment 5,,,,,,,,,2,,,,,,,,,,,,,0.0-3.0-8.0,,, ,388,,stimuli/20111112.jpg,,,129901,,practrice_feedback,11,image-keyboard-response,,
347,Experiment 5,True,,,,,,,,1,,,,,,,,,,,,,0.0-3.0-9.0,,,1,1515,,stimuli/1111010.jpg,"{'ball_pos': 1, 'filepath': 'stimuli/1111010.jpg', 'ego_can_infer': True, 'ego_occluders': '010', 'alter_can_infer': False, 'alter_occluders': '111', 'ego_ball_visible': False, 'search_locations': [1], 'alter_ball_visible': False, 'collective_can_infer': False, 'collective_ball_visible': False}",,131417,,prediction_practice,12,image-keyboard-response,,
347,Experiment 5,,,,,,,,,1,,,,,,,,,,,,,0.0-3.0-10.0,,, ,299,,stimuli/11110101.jpg,,,131717,,practrice_feedback,13,image-keyboard-response,,
347,Experiment 5,True,,,,,,,,1,,,,,,,,,,,,,0.0-3.0-11.0,,,1,931,,stimuli/1101011.jpg,"{'ball_pos': 1, 'filepath': 'stimuli/1101011.jpg', 'ego_can_infer': False, 'ego_occluders': '011', 'alter_can_infer': True, 'alter_occluders': '101', 'ego_ball_visible': False, 'search_locations': [1], 'alter_ball_visible': True, 'collective_can_infer': False, 'collective_ball_visible': False}",,132648,,prediction_practice,14,image-keyboard-response,,
347,Experiment 5,,,,,,,,,1,,,,,,,,,,,,,0.0-3.0-12.0,,, ,322,,stimuli/11010111.jpg,,,132971,,practrice_feedback,15,image-keyboard-response,,
347,Experiment 5,True,,,,,,,,1,,,,,,,,,,,,,0.0-3.0-13.0,,,1,3185,,stimuli/1011010.jpg,"{'ball_pos': 1, 'filepath': 'stimuli/1011010.jpg', 'ego_can_infer': True, 'ego_occluders': '010', 'alter_can_infer': False, 'alter_occluders': '011', 'ego_ball_visible': False, 'search_locations': [1], 'alter_ball_visible': False, 'collective_can_infer': False, 'collective_ball_visible': False}",,136156,,prediction_practice,16,image-keyboard-response,,
347,Experiment 5,,,,,,,,,1,,,,,,,,,,,,,0.0-3.0-14.0,,, ,1514,,stimuli/10110101.jpg,,,137671,,practrice_feedback,17,image-keyboard-response,,
347,Experiment 5,True,,,,,,,,2,,,,,,,,,,,,,0.0-3.0-15.0,,,2,3773,,stimuli/2011011.jpg,"{'ball_pos': 2, 'filepath': 'stimuli/2011011.jpg', 'ego_can_infer': False, 'ego_occluders': '011', 'alter_can_infer': False, 'alter_occluders': '011', 'ego_ball_visible': False, 'search_locations': [2], 'alter_ball_visible': False, 'collective_can_infer': False, 'collective_ball_visible': False}",,141444,,prediction_practice,18,image-keyboard-response,,
347,Experiment 5,,,,,,,,,2,,,,,,,,,,,,,0.0-3.0-16.0,,, ,1814,,stimuli/20110112.jpg,,,143261,,practrice_feedback,19,image-keyboard-response,,
347,Experiment 5,True,,,,,,,,2,,,,,,,,,,,,,0.0-3.0-17.0,,,2,2102,,stimuli/2100001.jpg,"{'ball_pos': 2, 'filepath': 'stimuli/2100001.jpg', 'ego_can_infer': True, 'ego_occluders': '001', 'alter_can_infer': True, 'alter_occluders': '100', 'ego_ball_visible': False, 'search_locations': [2], 'alter_ball_visible': True, 'collective_can_infer': True, 'collective_ball_visible': False}",,145364,,prediction_practice,20,image-keyboard-response,,
347,Experiment 5,,,,,,,,,2,,,,,,,,,,,,,0.0-3.0-18.0,,, ,385,,stimuli/21000012.jpg,,,145750,,practrice_feedback,21,image-keyboard-response,,
347,Experiment 5,False,,,,,,,,0,,,,,,,,,,,,,0.0-3.0-19.0,,,1,2036,,stimuli/0000110.jpg,"{'ball_pos': 0, 'filepath': 'stimuli/0000110.jpg', 'ego_can_infer': False, 'ego_occluders': '110', 'alter_can_infer': True, 'alter_occluders': '000', 'ego_ball_visible': False, 'search_locations': [0], 'alter_ball_visible': True, 'collective_can_infer': False, 'collective_ball_visible': False}",,147786,,prediction_practice,22,image-keyboard-response,,
347,Experiment 5,,,,,,,,,0,,,,,,,,,,,,,0.0-3.0-20.0,,, ,473,,stimuli/00001100.jpg,,,148260,,practrice_feedback,23,image-keyboard-response,,
347,Experiment 5,,,,,,,,,,,,,,,,,,,,,,0.0-3.0-21.0,,,0,2240,,"Now that you've had some practice, you'll be tested with a couple of easy trials. If you correctly predict the ball's location, you'll move on to complete the experiment!",,,150500,,,24,html-button-response,,
347,Experiment 5,True,,,,,,,,,,,arrowleft,,,,,,,,,,0.0-3.0-22.0-0.0,,,arrowleft,1681,,stimuli/0000011.jpg,,,152182,,comprehension_quiz,25,image-keyboard-response,,
347,Experiment 5,True,,,,,,,,,,, ,,,,,,,,,,0.0-3.0-22.0-1.0,,, ,583,,stimuli/00000110.jpg,,,152766,,comprehension_quiz,26,image-keyboard-response,,
347,Experiment 5,True,,,,,,,,,,,arrowdown,,,,,,,,,,0.0-3.0-22.0-2.0,,,arrowdown,756,,stimuli/1010010.jpg,,,153522,,comprehension_quiz,27,image-keyboard-response,,
347,Experiment 5,True,,,,,,,,,,, ,,,,,,,,,,0.0-3.0-22.0-3.0,,, ,213,,stimuli/10100101.jpg,,,153736,,comprehension_quiz,28,image-keyboard-response,,
347,Experiment 5,,,,,,,,,,,,,,,,,,,,,,0.0-4.0,,,0,2040,,The experiment will now begin.,,,155777,,,29,html-button-response,,
347,Experiment 5,True,1,,True,True,001,0,,0,True,True,,True,True,011,,,,,,,0.0-5.0,,,0,1412,[0],stimuli/0001011.jpg,,,157190,,prediction_trial,30,image-keyboard-response,,
347,Experiment 5,,,,,,,,,0,,,,,,,,,,,,,0.0-6.0,,, ,519,,stimuli/00010110.jpg,,,157709,,feedback_trial,31,image-keyboard-response,,
347,Experiment 5,True,1,,True,True,000,0,,0,False,True,,False,True,100,,,,,,,0.0-7.0,,,0,799,[0],stimuli/0000100.jpg,,,158508,,prediction_trial,32,image-keyboard-response,,
347,Experiment 5,,,,,,,,,0,,,,,,,,,,,,,0.0-8.0,,, ,214,,stimuli/00001000.jpg,,,158723,,feedback_trial,33,image-keyboard-response,,
347,Experiment 5,True,1,,False,False,101,2,,2,False,False,,True,True,110,,,,,,,0.0-9.0,,,2,671,[2],stimuli/2101110.jpg,,,159395,,prediction_trial,34,image-keyboard-response,,
347,Experiment 5,,,,,,,,,2,,,,,,,,,,,,,0.0-10.0,,, ,169,,stimuli/21011102.jpg,,,159564,,feedback_trial,35,image-keyboard-response,,
347,Experiment 5,True,1,,False,False,111,1,,1,False,False,,False,False,111,,,,,,,0.0-11.0,,,1,1451,[1],stimuli/1111111.jpg,,,161015,,prediction_trial,36,image-keyboard-response,,
347,Experiment 5,,,,,,,,,1,,,,,,,,,,,,,0.0-12.0,,, ,345,,stimuli/11111111.jpg,,,161360,,feedback_trial,37,image-keyboard-response,,
347,Experiment 5,True,1,,True,True,101,1,,1,False,True,,False,True,010,,,,,,,0.0-13.0,,,1,973,[1],stimuli/1101010.jpg,,,162333,,prediction_trial,38,image-keyboard-response,,
347,Experiment 5,,,,,,,,,1,,,,,,,,,,,,,0.0-14.0,,, ,190,,stimuli/11010101.jpg,,,162526,,feedback_trial,39,image-keyboard-response,,
347,Experiment 5,True,1,,False,False,101,0,,0,False,False,,False,False,110,,,,,,,0.0-15.0,,,0,1427,[0],stimuli/0101110.jpg,,,163954,,prediction_trial,40,image-keyboard-response,,
347,Experiment 5,,,,,,,,,0,,,,,,,,,,,,,0.0-16.0,,, ,475,,stimuli/01011100.jpg,,,164429,,feedback_trial,41,image-keyboard-response,,
347,Experiment 5,True,1,,True,True,001,0,,0,False,True,,False,True,100,,,,,,,0.0-17.0,,,0,820,[0],stimuli/0001100.jpg,,,165250,,prediction_trial,42,image-keyboard-response,,
347,Experiment 5,,,,,,,,,0,,,,,,,,,,,,,0.0-18.0,,, ,236,,stimuli/00011000.jpg,,,165487,,feedback_trial,43,image-keyboard-response,,
347,Experiment 5,True,1,,False,False,111,0,,0,False,False,,True,True,000,,,,,,,0.0-19.0,,,0,495,[0],stimuli/0111000.jpg,,,165982,,prediction_trial,44,image-keyboard-response,,
347,Experiment 5,,,,,,,,,0,,,,,,,,,,,,,0.0-20.0,,, ,236,,stimuli/01110000.jpg,,,166219,,feedback_trial,45,image-keyboard-response,,
347,Experiment 5,True,1,,True,True,000,1,,1,True,True,,True,True,100,,,,,,,0.0-21.0,,,1,518,[1],stimuli/1000100.jpg,,,166737,,prediction_trial,46,image-keyboard-response,,
347,Experiment 5,,,,,,,,,1,,,,,,,,,,,,,0.0-22.0,,, ,190,,stimuli/10001001.jpg,,,166930,,feedback_trial,47,image-keyboard-response,,
347,Experiment 5,True,1,,False,False,110,1,,1,False,False,,False,True,010,,,,,,,0.0-23.0,,,1,648,[1],stimuli/1110010.jpg,,,167578,,prediction_trial,48,image-keyboard-response,,
347,Experiment 5,,,,,,,,,1,,,,,,,,,,,,,0.0-24.0,,, ,126,,stimuli/11100101.jpg,,,167705,,feedback_trial,49,image-keyboard-response,,
347,Experiment 5,True,1,,False,False,101,2,,2,False,False,,False,True,001,,,,,,,0.0-25.0,,,2,498,[2],stimuli/2101001.jpg,,,168203,,prediction_trial,50,image-keyboard-response,,
347,Experiment 5,,,,,,,,,2,,,,,,,,,,,,,0.0-26.0,,, ,125,,stimuli/21010012.jpg,,,168329,,feedback_trial,51,image-keyboard-response,,
347,Experiment 5,False,0,,False,False,011,1,,1,False,False,,False,False,111,,,,,,,0.0-27.0,,,0,1471,[1],stimuli/1011111.jpg,,,169800,,prediction_trial,52,image-keyboard-response,,
347,Experiment 5,,,,,,,,,1,,,,,,,,,,,,,0.0-28.0,,, ,476,,stimuli/10111111.jpg,,,170276,,feedback_trial,53,image-keyboard-response,,
347,Experiment 5,True,1,,True,True,001,1,,1,False,True,,False,True,010,,,,,,,0.0-29.0,,,1,885,[1],stimuli/1001010.jpg,,,171162,,prediction_trial,54,image-keyboard-response,,
347,Experiment 5,,,,,,,,,1,,,,,,,,,,,,,0.0-30.0,,, ,257,,stimuli/10010101.jpg,,,171420,,feedback_trial,55,image-keyboard-response,,
347,Experiment 5,True,1,,False,False,101,2,,2,False,False,,True,True,000,,,,,,,0.0-31.0,,,2,454,[2],stimuli/2101000.jpg,,,171874,,prediction_trial,56,image-keyboard-response,,
347,Experiment 5,,,,,,,,,2,,,,,,,,,,,,,0.0-32.0,,, ,148,,stimuli/21010002.jpg,,,172022,,feedback_trial,57,image-keyboard-response,,
347,Experiment 5,True,1,,False,True,010,1,,1,False,True,,True,True,000,,,,,,,0.0-33.0,,,1,583,[1],stimuli/1010000.jpg,,,172605,,prediction_trial,58,image-keyboard-response,,
347,Experiment 5,,,,,,,,,1,,,,,,,,,,,,,0.0-34.0,,, ,105,,stimuli/10100001.jpg,,,172711,,feedback_trial,59,image-keyboard-response,,
347,Experiment 5,False,0,,False,False,011,2,,2,False,False,,False,False,111,,,,,,,0.0-35.0,,,1,800,[2],stimuli/2011111.jpg,,,173511,,prediction_trial,60,image-keyboard-response,,
347,Experiment 5,,,,,,,,,2,,,,,,,,,,,,,0.0-36.0,,, ,406,,stimuli/20111112.jpg,,,173920,,feedback_trial,61,image-keyboard-response,,
347,Experiment 5,True,1,,True,True,000,1,,1,True,True,,True,True,000,,,,,,,0.0-37.0,,,1,430,[1],stimuli/1000000.jpg,,,174351,,prediction_trial,62,image-keyboard-response,,
347,Experiment 5,,,,,,,,,1,,,,,,,,,,,,,0.0-38.0,,, ,148,,stimuli/10000001.jpg,,,174500,,feedback_trial,63,image-keyboard-response,,
347,Experiment 5,False,0,,False,True,100,0,,0,False,False,,False,False,111,,,,,,,0.0-39.0,,,2,1452,[0],stimuli/0100111.jpg,,,175952,,prediction_trial,64,image-keyboard-response,,
347,Experiment 5,,,,,,,,,0,,,,,,,,,,,,,0.0-40.0,,, ,387,,stimuli/01001110.jpg,,,176339,,feedback_trial,65,image-keyboard-response,,
347,Experiment 5,True,1,,False,True,001,2,,2,False,True,,True,True,000,,,,,,,0.0-41.0,,,2,496,[2],stimuli/2001000.jpg,,,176836,,prediction_trial,66,image-keyboard-response,,
347,Experiment 5,,,,,,,,,2,,,,,,,,,,,,,0.0-42.0,,, ,169,,stimuli/20010002.jpg,,,177006,,feedback_trial,67,image-keyboard-response,,
347,Experiment 5,False,0,,False,True,001,2,,2,False,False,,False,False,101,,,,,,,0.0-43.0,,,0,1124,[2],stimuli/2001101.jpg,,,178130,,prediction_trial,68,image-keyboard-response,,
347,Experiment 5,,,,,,,,,2,,,,,,,,,,,,,0.0-44.0,,, ,582,,stimuli/20011012.jpg,,,178715,,feedback_trial,69,image-keyboard-response,,
347,Experiment 5,True,1,,False,False,111,2,,2,False,False,,True,True,110,,,,,,,0.0-45.0,,,2,496,[2],stimuli/2111110.jpg,,,179212,,prediction_trial,70,image-keyboard-response,,
347,Experiment 5,,,,,,,,,2,,,,,,,,,,,,,0.0-46.0,,, ,148,,stimuli/21111102.jpg,,,179360,,feedback_trial,71,image-keyboard-response,,
347,Experiment 5,True,1,,True,True,101,1,,1,True,True,,True,True,101,,,,,,,0.0-47.0,,,1,409,[1],stimuli/1101101.jpg,,,179769,,prediction_trial,72,image-keyboard-response,,
347,Experiment 5,,,,,,,,,1,,,,,,,,,,,,,0.0-48.0,,, ,171,,stimuli/11011011.jpg,,,179941,,feedback_trial,73,image-keyboard-response,,
347,Experiment 5,True,1,,False,False,011,1,,1,False,False,,True,True,100,,,,,,,0.0-49.0,,,1,474,[1],stimuli/1011100.jpg,,,180415,,prediction_trial,74,image-keyboard-response,,
347,Experiment 5,,,,,,,,,1,,,,,,,,,,,,,0.0-50.0,,, ,127,,stimuli/10111001.jpg,,,180542,,feedback_trial,75,image-keyboard-response,,
347,Experiment 5,False,0,,True,True,000,2,,2,False,False,,False,False,111,,,,,,,0.0-51.0,,,0,1883,[2],stimuli/2000111.jpg,,,182425,,prediction_trial,76,image-keyboard-response,,
347,Experiment 5,,,,,,,,,2,,,,,,,,,,,,,0.0-52.0,,, ,433,,stimuli/20001112.jpg,,,182858,,feedback_trial,77,image-keyboard-response,,
347,Experiment 5,True,1,,True,True,101,1,,1,False,False,,False,False,110,,,,,,,0.0-53.0,,,1,777,[1],stimuli/1101110.jpg,,,183636,,prediction_trial,78,image-keyboard-response,,
347,Experiment 5,,,,,,,,,1,,,,,,,,,,,,,0.0-54.0,,, ,279,,stimuli/11011101.jpg,,,183915,,feedback_trial,79,image-keyboard-response,,
347,Experiment 5,True,1,,False,False,011,2,,2,False,False,,True,True,100,,,,,,,0.0-55.0,,,2,562,[2],stimuli/2011100.jpg,,,184477,,prediction_trial,80,image-keyboard-response,,
347,Experiment 5,,,,,,,,,2,,,,,,,,,,,,,0.0-56.0,,, ,147,,stimuli/20111002.jpg,,,184625,,feedback_trial,81,image-keyboard-response,,
347,Experiment 5,True,1,,False,True,010,1,,1,False,False,,False,False,110,,,,,,,0.0-57.0,,,1,670,[1],stimuli/1010110.jpg,,,185295,,prediction_trial,82,image-keyboard-response,,
347,Experiment 5,,,,,,,,,1,,,,,,,,,,,,,0.0-58.0,,, ,278,,stimuli/10101101.jpg,,,185574,,feedback_trial,83,image-keyboard-response,,
347,Experiment 5,True,1,,True,True,000,2,,2,True,True,,True,True,100,,,,,,,0.0-59.0,,,2,734,[2],stimuli/2000100.jpg,,,186310,,prediction_trial,84,image-keyboard-response,,
347,Experiment 5,,,,,,,,,2,,,,,,,,,,,,,0.0-60.0,,, ,168,,stimuli/20001002.jpg,,,186479,,feedback_trial,85,image-keyboard-response,,
347,Experiment 5,True,1,,True,True,110,2,,2,False,False,,False,False,101,,,,,,,0.0-61.0,,,2,1496,[2],stimuli/2110101.jpg,,,187975,,prediction_trial,86,image-keyboard-response,,
347,Experiment 5,,,,,,,,,2,,,,,,,,,,,,,0.0-62.0,,, ,386,,stimuli/21101012.jpg,,,188361,,feedback_trial,87,image-keyboard-response,,
347,Experiment 5,True,1,,True,True,100,2,,2,True,True,,True,True,000,,,,,,,0.0-63.0,,,2,691,[2],stimuli/2100000.jpg,,,189053,,prediction_trial,88,image-keyboard-response,,
347,Experiment 5,,,,,,,,,2,,,,,,,,,,,,,0.0-64.0,,, ,191,,stimuli/21000002.jpg,,,189245,,feedback_trial,89,image-keyboard-response,,
347,Experiment 5,True,1,,False,False,011,2,,2,False,False,,True,True,010,,,,,,,0.0-65.0,,,2,410,[2],stimuli/2011010.jpg,,,189655,,prediction_trial,90,image-keyboard-response,,
347,Experiment 5,,,,,,,,,2,,,,,,,,,,,,,0.0-66.0,,, ,168,,stimuli/20110102.jpg,,,189824,,feedback_trial,91,image-keyboard-response,,
347,Experiment 5,True,1,,True,True,010,0,,0,True,True,,True,True,011,,,,,,,0.0-67.0,,,0,517,[0],stimuli/0010011.jpg,,,190341,,prediction_trial,92,image-keyboard-response,,
347,Experiment 5,,,,,,,,,0,,,,,,,,,,,,,0.0-68.0,,, ,128,,stimuli/00100110.jpg,,,190470,,feedback_trial,93,image-keyboard-response,,
347,Experiment 5,False,0,,True,True,001,0,,0,False,False,,False,False,101,,,,,,,0.0-69.0,,,2,1495,[0],stimuli/0001101.jpg,,,191965,,prediction_trial,94,image-keyboard-response,,
347,Experiment 5,,,,,,,,,0,,,,,,,,,,,,,0.0-70.0,,, ,322,,stimuli/00011010.jpg,,,192287,,feedback_trial,95,image-keyboard-response,,
347,Experiment 5,False,0,,True,True,010,0,,0,False,False,,False,False,111,,,,,,,0.0-71.0,,,1,734,[0],stimuli/0010111.jpg,,,193021,,prediction_trial,96,image-keyboard-response,,
347,Experiment 5,,,,,,,,,0,,,,,,,,,,,,,0.0-72.0,,, ,344,,stimuli/00101110.jpg,,,193366,,feedback_trial,97,image-keyboard-response,,
347,Experiment 5,True,1,,True,True,100,2,,2,True,True,,True,True,100,,,,,,,0.0-73.0,,,2,429,[2],stimuli/2100100.jpg,,,193798,,prediction_trial,98,image-keyboard-response,,
347,Experiment 5,,,,,,,,,2,,,,,,,,,,,,,0.0-74.0,,, ,212,,stimuli/21001002.jpg,,,194011,,feedback_trial,99,image-keyboard-response,,
347,Experiment 5,False,0,,False,False,101,0,,0,False,False,,False,False,111,,,,,,,0.0-75.0,,,2,607,[0],stimuli/0101111.jpg,,,194618,,prediction_trial,100,image-keyboard-response,,
347,Experiment 5,,,,,,,,,0,,,,,,,,,,,,,0.0-76.0,,, ,320,,stimuli/01011110.jpg,,,194939,,feedback_trial,101,image-keyboard-response,,
347,Experiment 5,True,1,,True,True,100,1,,1,True,True,,True,True,001,,,,,,,0.0-77.0,,,1,451,[1],stimuli/1100001.jpg,,,195391,,prediction_trial,102,image-keyboard-response,,
347,Experiment 5,,,,,,,,,1,,,,,,,,,,,,,0.0-78.0,,, ,171,,stimuli/11000011.jpg,,,195562,,feedback_trial,103,image-keyboard-response,,
347,Experiment 5,False,0,,False,False,110,0,,0,False,False,,False,False,101,,,,,,,0.0-79.0,,,2,780,[0],stimuli/0110101.jpg,,,196342,,prediction_trial,104,image-keyboard-response,,
347,Experiment 5,,,,,,,,,0,,,,,,,,,,,,,0.0-80.0,,, ,318,,stimuli/01101010.jpg,,,196663,,feedback_trial,105,image-keyboard-response,,
347,Experiment 5,False,0,,False,False,110,0,,0,False,False,,False,False,110,,,,,,,0.0-81.0,,,1,843,[0],stimuli/0110110.jpg,,,197506,,prediction_trial,106,image-keyboard-response,,
347,Experiment 5,,,,,,,,,0,,,,,,,,,,,,,0.0-82.0,,, ,280,,stimuli/01101100.jpg,,,197786,,feedback_trial,107,image-keyboard-response,,
347,Experiment 5,False,0,,False,False,111,2,,2,False,False,,False,False,011,,,,,,,0.0-83.0,,,1,496,[2],stimuli/2111011.jpg,,,198282,,prediction_trial,108,image-keyboard-response,,
347,Experiment 5,,,,,,,,,2,,,,,,,,,,,,,0.0-84.0,,, ,191,,stimuli/21110112.jpg,,,198474,,feedback_trial,109,image-keyboard-response,,
347,Experiment 5,True,1,,False,False,101,0,,0,False,False,,False,True,100,,,,,,,0.0-85.0,,,0,539,[0],stimuli/0101100.jpg,,,199013,,prediction_trial,110,image-keyboard-response,,
347,Experiment 5,,,,,,,,,0,,,,,,,,,,,,,0.0-86.0,,, ,127,,stimuli/01011000.jpg,,,199143,,feedback_trial,111,image-keyboard-response,,
347,Experiment 5,True,1,,True,True,110,2,,2,True,True,,True,True,010,,,,,,,0.0-87.0,,,2,408,[2],stimuli/2110010.jpg,,,199552,,prediction_trial,112,image-keyboard-response,,
347,Experiment 5,,,,,,,,,2,,,,,,,,,,,,,0.0-88.0,,, ,125,,stimuli/21100102.jpg,,,199678,,feedback_trial,113,image-keyboard-response,,
347,Experiment 5,True,1,,True,True,000,2,,2,True,True,,True,True,110,,,,,,,0.0-89.0,,,2,411,[2],stimuli/2000110.jpg,,,200089,,prediction_trial,114,image-keyboard-response,,
347,Experiment 5,,,,,,,,,2,,,,,,,,,,,,,0.0-90.0,,, ,125,,stimuli/20001102.jpg,,,200215,,feedback_trial,115,image-keyboard-response,,
347,Experiment 5,True,1,,False,False,111,2,,2,False,False,,False,True,001,,,,,,,0.0-91.0,,,2,454,[2],stimuli/2111001.jpg,,,200669,,prediction_trial,116,image-keyboard-response,,
347,Experiment 5,,,,,,,,,2,,,,,,,,,,,,,0.0-92.0,,, ,80,,stimuli/21110012.jpg,,,200752,,feedback_trial,117,image-keyboard-response,,
347,Experiment 5,True,1,,True,True,010,0,,0,True,True,,True,True,010,,,,,,,0.0-93.0,,,0,428,[0],stimuli/0010010.jpg,,,201181,,prediction_trial,118,image-keyboard-response,,
347,Experiment 5,,,,,,,,,0,,,,,,,,,,,,,0.0-94.0,,, ,104,,stimuli/00100100.jpg,,,201285,,feedback_trial,119,image-keyboard-response,,
347,Experiment 5,True,1,,False,True,100,0,,0,False,True,,True,True,000,,,,,,,0.0-95.0,,,0,432,[0],stimuli/0100000.jpg,,,201718,,prediction_trial,120,image-keyboard-response,,
347,Experiment 5,,,,,,,,,0,,,,,,,,,,,,,0.0-96.0,,, ,128,,stimuli/01000000.jpg,,,201847,,feedback_trial,121,image-keyboard-response,,
347,Experiment 5,True,1,,False,True,010,1,,1,False,True,,True,True,100,,,,,,,0.0-97.0,,,1,410,[1],stimuli/1010100.jpg,,,202257,,prediction_trial,122,image-keyboard-response,,
347,Experiment 5,,,,,,,,,1,,,,,,,,,,,,,0.0-98.0,,, ,104,,stimuli/10101001.jpg,,,202362,,feedback_trial,123,image-keyboard-response,,
347,Experiment 5,True,1,,False,False,011,1,,1,False,False,,True,True,000,,,,,,,0.0-99.0,,,1,432,[1],stimuli/1011000.jpg,,,202794,,prediction_trial,124,image-keyboard-response,,
347,Experiment 5,,,,,,,,,1,,,,,,,,,,,,,0.0-100.0,,, ,82,,stimuli/10110001.jpg,,,202878,,feedback_trial,125,image-keyboard-response,,
347,Experiment 5,True,1,,False,False,011,2,,2,False,False,,True,True,110,,,,,,,0.0-101.0,,,2,497,[2],stimuli/2011110.jpg,,,203375,,prediction_trial,126,image-keyboard-response,,
347,Experiment 5,,,,,,,,,2,,,,,,,,,,,,,0.0-102.0,,, ,125,,stimuli/20111102.jpg,,,203501,,feedback_trial,127,image-keyboard-response,,
347,Experiment 5,True,1,,True,True,101,1,,1,True,True,,True,True,000,,,,,,,0.0-103.0,,,1,366,[1],stimuli/1101000.jpg,,,203867,,prediction_trial,128,image-keyboard-response,,
347,Experiment 5,,,,,,,,,1,,,,,,,,,,,,,0.0-104.0,,, ,101,,stimuli/11010001.jpg,,,203969,,feedback_trial,129,image-keyboard-response,,
347,Experiment 5,True,1,,False,True,100,0,,0,False,True,,True,True,011,,,,,,,0.0-105.0,,,0,477,[0],stimuli/0100011.jpg,,,204446,,prediction_trial,130,image-keyboard-response,,
347,Experiment 5,,,,,,,,,0,,,,,,,,,,,,,0.0-106.0,,, ,81,,stimuli/01000110.jpg,,,204528,,feedback_trial,131,image-keyboard-response,,
347,Experiment 5,True,1,,False,True,010,1,,1,False,True,,False,True,010,,,,,,,0.0-107.0,,,1,760,[1],stimuli/1010010.jpg,,,205288,,prediction_trial,132,image-keyboard-response,,
347,Experiment 5,,,,,,,,,1,,,,,,,,,,,,,0.0-108.0,,, ,105,,stimuli/10100101.jpg,,,205394,,feedback_trial,133,image-keyboard-response,,
347,Experiment 5,True,1,,True,True,000,2,,2,False,True,,False,True,001,,,,,,,0.0-109.0,,,2,432,[2],stimuli/2000001.jpg,,,205826,,prediction_trial,134,image-keyboard-response,,
347,Experiment 5,,,,,,,,,2,,,,,,,,,,,,,0.0-110.0,,, ,103,,stimuli/20000012.jpg,,,205930,,feedback_trial,135,image-keyboard-response,,
347,Experiment 5,True,1,,True,True,011,0,,0,True,True,,True,True,011,,,,,,,0.0-111.0,,,0,604,[0],stimuli/0011011.jpg,,,206534,,prediction_trial,136,image-keyboard-response,,
347,Experiment 5,,,,,,,,,0,,,,,,,,,,,,,0.0-112.0,,, ,59,,stimuli/00110110.jpg,,,206593,,feedback_trial,137,image-keyboard-response,,
347,Experiment 5,True,1,,False,False,101,0,,0,False,False,,True,True,001,,,,,,,0.0-113.0,,,0,586,[0],stimuli/0101001.jpg,,,207179,,prediction_trial,138,image-keyboard-response,,
347,Experiment 5,,,,,,,,,0,,,,,,,,,,,,,0.0-114.0,,, ,102,,stimuli/01010010.jpg,,,207282,,feedback_trial,139,image-keyboard-response,,
347,Experiment 5,True,1,,False,False,111,0,,0,False,False,,True,True,010,,,,,,,0.0-115.0,,,0,452,[0],stimuli/0111010.jpg,,,207737,,prediction_trial,140,image-keyboard-response,,
347,Experiment 5,,,,,,,,,0,,,,,,,,,,,,,0.0-116.0,,, ,103,,stimuli/01110100.jpg,,,207840,,feedback_trial,141,image-keyboard-response,,
347,Experiment 5,True,1,,False,True,010,1,,1,False,True,,True,True,001,,,,,,,0.0-117.0,,,1,500,[1],stimuli/1010001.jpg,,,208340,,prediction_trial,142,image-keyboard-response,,
347,Experiment 5,,,,,,,,,1,,,,,,,,,,,,,0.0-118.0,,, ,81,,stimuli/10100011.jpg,,,208421,,feedback_trial,143,image-keyboard-response,,
347,Experiment 5,True,1,,False,False,111,0,,0,False,False,,False,False,110,,,,,,,0.0-119.0,,,0,2059,[0],stimuli/0111110.jpg,,,210481,,prediction_trial,144,image-keyboard-response,,
347,Experiment 5,,,,,,,,,0,,,,,,,,,,,,,0.0-120.0,,, ,346,,stimuli/01111100.jpg,,,210827,,feedback_trial,145,image-keyboard-response,,
347,Experiment 5,True,1,,True,True,000,0,,0,True,True,,True,True,000,,,,,,,0.0-121.0,,,0,448,[0],stimuli/0000000.jpg,,,211278,,prediction_trial,146,image-keyboard-response,,
347,Experiment 5,,,,,,,,,0,,,,,,,,,,,,,0.0-122.0,,, ,127,,stimuli/00000000.jpg,,,211406,,feedback_trial,147,image-keyboard-response,,
347,Experiment 5,False,0,,False,False,111,2,,2,False,False,,False,False,101,,,,,,,0.0-123.0,,,0,1949,[2],stimuli/2111101.jpg,,,213355,,prediction_trial,148,image-keyboard-response,,
347,Experiment 5,,,,,,,,,2,,,,,,,,,,,,,0.0-124.0,,, ,388,,stimuli/21111012.jpg,,,213743,,feedback_trial,149,image-keyboard-response,,
347,Experiment 5,True,1,,True,True,010,2,,2,True,True,,True,True,010,,,,,,,0.0-125.0,,,2,410,[2],stimuli/2010010.jpg,,,214154,,prediction_trial,150,image-keyboard-response,,
347,Experiment 5,,,,,,,,,2,,,,,,,,,,,,,0.0-126.0,,, ,190,,stimuli/20100102.jpg,,,214345,,feedback_trial,151,image-keyboard-response,,
347,Experiment 5,True,1,,False,False,111,0,,0,False,False,,False,True,100,,,,,,,0.0-127.0,,,0,473,[0],stimuli/0111100.jpg,,,214818,,prediction_trial,152,image-keyboard-response,,
347,Experiment 5,,,,,,,,,0,,,,,,,,,,,,,0.0-128.0,,, ,172,,stimuli/01111000.jpg,,,214991,,feedback_trial,153,image-keyboard-response,,
347,Experiment 5,False,0,,True,True,010,0,,0,False,False,,False,False,110,,,,,,,0.0-129.0,,,1,580,[0],stimuli/0010110.jpg,,,215574,,prediction_trial,154,image-keyboard-response,,
347,Experiment 5,,,,,,,,,0,,,,,,,,,,,,,0.0-130.0,,, ,235,,stimuli/00101100.jpg,,,215809,,feedback_trial,155,image-keyboard-response,,
347,Experiment 5,False,0,,True,True,000,1,,1,False,False,,False,False,111,,,,,,,0.0-131.0,,,0,452,[1],stimuli/1000111.jpg,,,216261,,prediction_trial,156,image-keyboard-response,,
347,Experiment 5,,,,,,,,,1,,,,,,,,,,,,,0.0-132.0,,, ,301,,stimuli/10001111.jpg,,,216563,,feedback_trial,157,image-keyboard-response,,
347,Experiment 5,True,1,,True,True,000,1,,1,False,True,,False,True,010,,,,,,,0.0-133.0,,,1,517,[1],stimuli/1000010.jpg,,,217081,,prediction_trial,158,image-keyboard-response,,
347,Experiment 5,,,,,,,,,1,,,,,,,,,,,,,0.0-134.0,,, ,278,,stimuli/10000101.jpg,,,217360,,feedback_trial,159,image-keyboard-response,,
347,Experiment 5,True,1,,False,False,101,0,,0,False,False,,True,True,011,,,,,,,0.0-135.0,,,0,473,[0],stimuli/0101011.jpg,,,217833,,prediction_trial,160,image-keyboard-response,,
347,Experiment 5,,,,,,,,,0,,,,,,,,,,,,,0.0-136.0,,, ,171,,stimuli/01010110.jpg,,,218005,,feedback_trial,161,image-keyboard-response,,
347,Experiment 5,True,1,,True,True,001,1,,1,True,True,,True,True,101,,,,,,,0.0-137.0,,,1,385,[1],stimuli/1001101.jpg,,,218393,,prediction_trial,162,image-keyboard-response,,
347,Experiment 5,,,,,,,,,1,,,,,,,,,,,,,0.0-138.0,,, ,149,,stimuli/10011011.jpg,,,218542,,feedback_trial,163,image-keyboard-response,,
347,Experiment 5,True,1,,False,True,100,0,,0,False,True,,False,True,100,,,,,,,0.0-139.0,,,0,516,[0],stimuli/0100100.jpg,,,219059,,prediction_trial,164,image-keyboard-response,,
347,Experiment 5,,,,,,,,,0,,,,,,,,,,,,,0.0-140.0,,, ,125,,stimuli/01001000.jpg,,,219184,,feedback_trial,165,image-keyboard-response,,
347,Experiment 5,True,1,,False,False,111,0,,0,False,False,,True,True,011,,,,,,,0.0-141.0,,,0,477,[0],stimuli/0111011.jpg,,,219661,,prediction_trial,166,image-keyboard-response,,
347,Experiment 5,,,,,,,,,0,,,,,,,,,,,,,0.0-142.0,,, ,124,,stimuli/01110110.jpg,,,219785,,feedback_trial,167,image-keyboard-response,,
347,Experiment 5,True,1,,True,True,110,2,,2,True,True,,True,True,000,,,,,,,0.0-143.0,,,2,414,[2],stimuli/2110000.jpg,,,220200,,prediction_trial,168,image-keyboard-response,,
347,Experiment 5,,,,,,,,,2,,,,,,,,,,,,,0.0-144.0,,, ,101,,stimuli/21100002.jpg,,,220304,,feedback_trial,169,image-keyboard-response,,
347,Experiment 5,True,1,,True,True,011,0,,0,True,True,,True,True,000,,,,,,,0.0-145.0,,,0,408,[0],stimuli/0011000.jpg,,,220712,,prediction_trial,170,image-keyboard-response,,
347,Experiment 5,,,,,,,,,0,,,,,,,,,,,,,0.0-146.0,,, ,103,,stimuli/00110000.jpg,,,220816,,feedback_trial,171,image-keyboard-response,,
347,Experiment 5,True,1,,False,False,111,1,,1,False,False,,False,False,110,,,,,,,0.0-147.0,,,1,456,[1],stimuli/1111110.jpg,,,221272,,prediction_trial,172,image-keyboard-response,,
347,Experiment 5,,,,,,,,,1,,,,,,,,,,,,,0.0-148.0,,, ,127,,stimuli/11111101.jpg,,,221400,,feedback_trial,173,image-keyboard-response,,
347,Experiment 5,True,1,,True,True,100,1,,1,True,True,,True,True,000,,,,,,,0.0-149.0,,,1,453,[1],stimuli/1100000.jpg,,,221853,,prediction_trial,174,image-keyboard-response,,
347,Experiment 5,,,,,,,,,1,,,,,,,,,,,,,0.0-150.0,,, ,126,,stimuli/11000001.jpg,,,221980,,feedback_trial,175,image-keyboard-response,,
347,Experiment 5,True,1,,False,False,101,0,,0,False,False,,True,True,000,,,,,,,0.0-151.0,,,0,406,[0],stimuli/0101000.jpg,,,222388,,prediction_trial,176,image-keyboard-response,,
347,Experiment 5,,,,,,,,,0,,,,,,,,,,,,,0.0-152.0,,, ,124,,stimuli/01010000.jpg,,,222513,,feedback_trial,177,image-keyboard-response,,
347,Experiment 5,False,0,,False,False,101,0,,0,False,False,,False,False,101,,,,,,,0.0-153.0,,,1,457,[0],stimuli/0101101.jpg,,,222970,,prediction_trial,178,image-keyboard-response,,
347,Experiment 5,,,,,,,,,0,,,,,,,,,,,,,0.0-154.0,,, ,126,,stimuli/01011010.jpg,,,223097,,feedback_trial,179,image-keyboard-response,,
347,Experiment 5,True,1,,True,True,010,2,,2,True,True,,True,True,100,,,,,,,0.0-155.0,,,2,520,[2],stimuli/2010100.jpg,,,223617,,prediction_trial,180,image-keyboard-response,,
347,Experiment 5,,,,,,,,,2,,,,,,,,,,,,,0.0-156.0,,, ,100,,stimuli/20101002.jpg,,,223717,,feedback_trial,181,image-keyboard-response,,
347,Experiment 5,True,1,,False,False,111,1,,1,False,False,,False,True,010,,,,,,,0.0-157.0,,,1,587,[1],stimuli/1111010.jpg,,,224304,,prediction_trial,182,image-keyboard-response,,
347,Experiment 5,,,,,,,,,1,,,,,,,,,,,,,0.0-158.0,,, ,126,,stimuli/11110101.jpg,,,224431,,feedback_trial,183,image-keyboard-response,,
347,Experiment 5,True,1,,False,False,110,0,,0,False,False,,True,True,000,,,,,,,0.0-159.0,,,0,408,[0],stimuli/0110000.jpg,,,224839,,prediction_trial,184,image-keyboard-response,,
347,Experiment 5,,,,,,,,,0,,,,,,,,,,,,,0.0-160.0,,, ,129,,stimuli/01100000.jpg,,,224968,,feedback_trial,185,image-keyboard-response,,
347,Experiment 5,True,1,,True,True,100,1,,1,False,False,,False,False,110,,,,,,,0.0-161.0,,,1,778,[1],stimuli/1100110.jpg,,,225746,,prediction_trial,186,image-keyboard-response,,
347,Experiment 5,,,,,,,,,1,,,,,,,,,,,,,0.0-162.0,,, ,79,,stimuli/11001101.jpg,,,225826,,feedback_trial,187,image-keyboard-response,,
347,Experiment 5,False,0,,True,True,011,0,,0,False,False,,False,False,101,,,,,,,0.0-163.0,,,2,632,[0],stimuli/0011101.jpg,,,226458,,prediction_trial,188,image-keyboard-response,,
347,Experiment 5,,,,,,,,,0,,,,,,,,,,,,,0.0-164.0,,, ,101,,stimuli/00111010.jpg,,,226559,,feedback_trial,189,image-keyboard-response,,
347,Experiment 5,False,0,,True,True,000,0,,0,False,False,,False,False,101,,,,,,,0.0-165.0,,,2,608,[0],stimuli/0000101.jpg,,,227168,,prediction_trial,190,image-keyboard-response,,
347,Experiment 5,,,,,,,,,0,,,,,,,,,,,,,0.0-166.0,,, ,125,,stimuli/00001010.jpg,,,227294,,feedback_trial,191,image-keyboard-response,,
347,Experiment 5,True,1,,False,False,011,2,,2,False,False,,False,True,001,,,,,,,0.0-167.0,,,2,476,[2],stimuli/2011001.jpg,,,227770,,prediction_trial,192,image-keyboard-response,,
347,Experiment 5,,,,,,,,,2,,,,,,,,,,,,,0.0-168.0,,, ,99,,stimuli/20110012.jpg,,,227870,,feedback_trial,193,image-keyboard-response,,
347,Experiment 5,True,1,,True,True,000,0,,0,True,True,,True,True,010,,,,,,,0.0-169.0,,,0,456,[0],stimuli/0000010.jpg,,,228327,,prediction_trial,194,image-keyboard-response,,
347,Experiment 5,,,,,,,,,0,,,,,,,,,,,,,0.0-170.0,,, ,99,,stimuli/00000100.jpg,,,228429,,feedback_trial,195,image-keyboard-response,,
347,Experiment 5,False,0,,False,False,011,1,,1,False,False,,False,False,110,,,,,,,0.0-171.0,,,2,501,[1],stimuli/1011110.jpg,,,228930,,prediction_trial,196,image-keyboard-response,,
347,Experiment 5,,,,,,,,,1,,,,,,,,,,,,,0.0-172.0,,, ,78,,stimuli/10111101.jpg,,,229009,,feedback_trial,197,image-keyboard-response,,
347,Experiment 5,True,1,,True,True,101,1,,1,True,True,,True,True,001,,,,,,,0.0-173.0,,,1,934,[1],stimuli/1101001.jpg,,,229943,,prediction_trial,198,image-keyboard-response,,
347,Experiment 5,,,,,,,,,1,,,,,,,,,,,,,0.0-174.0,,, ,101,,stimuli/11010011.jpg,,,230045,,feedback_trial,199,image-keyboard-response,,
347,Experiment 5,True,1,,True,True,001,0,,0,True,True,,True,True,001,,,,,,,0.0-175.0,,,0,564,[0],stimuli/0001001.jpg,,,230609,,prediction_trial,200,image-keyboard-response,,
347,Experiment 5,,,,,,,,,0,,,,,,,,,,,,,0.0-176.0,,, ,127,,stimuli/00010010.jpg,,,230737,,feedback_trial,201,image-keyboard-response,,
347,Experiment 5,True,1,,True,True,101,1,,1,True,True,,True,True,100,,,,,,,0.0-177.0,,,1,453,[1],stimuli/1101100.jpg,,,231190,,prediction_trial,202,image-keyboard-response,,
347,Experiment 5,,,,,,,,,1,,,,,,,,,,,,,0.0-178.0,,, ,126,,stimuli/11011001.jpg,,,231317,,feedback_trial,203,image-keyboard-response,,
347,Experiment 5,True,1,,False,True,001,2,,2,False,True,,False,True,001,,,,,,,0.0-179.0,,,2,498,[2],stimuli/2001001.jpg,,,231815,,prediction_trial,204,image-keyboard-response,,
347,Experiment 5,,,,,,,,,2,,,,,,,,,,,,,0.0-180.0,,, ,126,,stimuli/20010012.jpg,,,231941,,feedback_trial,205,image-keyboard-response,,
347,Experiment 5,False,0,,False,False,101,2,,2,False,False,,False,False,101,,,,,,,0.0-181.0,,,0,515,[2],stimuli/2101101.jpg,,,232457,,prediction_trial,206,image-keyboard-response,,
347,Experiment 5,,,,,,,,,2,,,,,,,,,,,,,0.0-182.0,,, ,149,,stimuli/21011012.jpg,,,232607,,feedback_trial,207,image-keyboard-response,,
347,Experiment 5,True,1,,True,True,100,1,,1,False,True,,False,True,010,,,,,,,0.0-183.0,,,1,559,[1],stimuli/1100010.jpg,,,233169,,prediction_trial,208,image-keyboard-response,,
347,Experiment 5,,,,,,,,,1,,,,,,,,,,,,,0.0-184.0,,, ,148,,stimuli/11000101.jpg,,,233318,,feedback_trial,209,image-keyboard-response,,
347,Experiment 5,True,1,,False,False,111,1,,1,False,False,,True,True,001,,,,,,,0.0-185.0,,,1,475,[1],stimuli/1111001.jpg,,,233793,,prediction_trial,210,image-keyboard-response,,
347,Experiment 5,,,,,,,,,1,,,,,,,,,,,,,0.0-186.0,,, ,148,,stimuli/11110011.jpg,,,233942,,feedback_trial,211,image-keyboard-response,,
347,Experiment 5,True,1,,False,True,010,1,,1,False,False,,False,False,111,,,,,,,0.0-187.0,,,1,539,[1],stimuli/1010111.jpg,,,234481,,prediction_trial,212,image-keyboard-response,,
347,Experiment 5,,,,,,,,,1,,,,,,,,,,,,,0.0-188.0,,, ,148,,stimuli/10101111.jpg,,,234630,,feedback_trial,213,image-keyboard-response,,
347,Experiment 5,True,1,,True,True,000,2,,2,True,True,,True,True,000,,,,,,,0.0-189.0,,,2,432,[2],stimuli/2000000.jpg,,,235063,,prediction_trial,214,image-keyboard-response,,
347,Experiment 5,,,,,,,,,2,,,,,,,,,,,,,0.0-190.0,,, ,123,,stimuli/20000002.jpg,,,235189,,feedback_trial,215,image-keyboard-response,,
347,Experiment 5,True,1,,True,True,001,1,,1,False,False,,False,False,110,,,,,,,0.0-191.0,,,1,887,[1],stimuli/1001110.jpg,,,236076,,prediction_trial,216,image-keyboard-response,,
347,Experiment 5,,,,,,,,,1,,,,,,,,,,,,,0.0-192.0,,, ,148,,stimuli/10011101.jpg,,,236225,,feedback_trial,217,image-keyboard-response,,
347,Experiment 5,True,1,,True,True,000,2,,2,False,False,,False,False,101,,,,,,,0.0-193.0,,,2,584,[2],stimuli/2000101.jpg,,,236809,,prediction_trial,218,image-keyboard-response,,
347,Experiment 5,,,,,,,,,2,,,,,,,,,,,,,0.0-194.0,,, ,190,,stimuli/20001012.jpg,,,237000,,feedback_trial,219,image-keyboard-response,,
347,Experiment 5,False,0,,True,True,000,2,,2,False,False,,False,False,011,,,,,,,0.0-195.0,,,1,495,[2],stimuli/2000011.jpg,,,237496,,prediction_trial,220,image-keyboard-response,,
347,Experiment 5,,,,,,,,,2,,,,,,,,,,,,,0.0-196.0,,, ,214,,stimuli/20000112.jpg,,,237710,,feedback_trial,221,image-keyboard-response,,
347,Experiment 5,True,1,,True,True,011,0,,0,True,True,,True,True,001,,,,,,,0.0-197.0,,,0,538,[0],stimuli/0011001.jpg,,,238248,,prediction_trial,222,image-keyboard-response,,
347,Experiment 5,,,,,,,,,0,,,,,,,,,,,,,0.0-198.0,,, ,148,,stimuli/00110010.jpg,,,238399,,feedback_trial,223,image-keyboard-response,,
347,Experiment 5,False,0,,True,True,010,2,,2,False,False,,False,False,011,,,,,,,0.0-199.0,,,1,583,[2],stimuli/2010011.jpg,,,238982,,prediction_trial,224,image-keyboard-response,,
347,Experiment 5,,,,,,,,,2,,,,,,,,,,,,,0.0-200.0,,, ,170,,stimuli/20100112.jpg,,,239153,,feedback_trial,225,image-keyboard-response,,
347,Experiment 5,False,0,,False,False,011,2,,2,False,False,,False,False,011,,,,,,,0.0-201.0,,,1,1145,[2],stimuli/2011011.jpg,,,240299,,prediction_trial,226,image-keyboard-response,,
347,Experiment 5,,,,,,,,,2,,,,,,,,,,,,,0.0-202.0,,, ,171,,stimuli/20110112.jpg,,,240470,,feedback_trial,227,image-keyboard-response,,
347,Experiment 5,True,1,,True,True,101,1,,1,False,False,,False,False,011,,,,,,,0.0-203.0,,,1,691,[1],stimuli/1101011.jpg,,,241162,,prediction_trial,228,image-keyboard-response,,
347,Experiment 5,,,,,,,,,1,,,,,,,,,,,,,0.0-204.0,,, ,213,,stimuli/11010111.jpg,,,241376,,feedback_trial,229,image-keyboard-response,,
347,Experiment 5,False,0,,True,True,010,2,,2,False,False,,False,False,111,,,,,,,0.0-205.0,,,1,451,[2],stimuli/2010111.jpg,,,241828,,prediction_trial,230,image-keyboard-response,,
347,Experiment 5,,,,,,,,,2,,,,,,,,,,,,,0.0-206.0,,, ,168,,stimuli/20101112.jpg,,,241999,,feedback_trial,231,image-keyboard-response,,
347,Experiment 5,True,1,,False,False,110,0,,0,False,False,,False,True,100,,,,,,,0.0-207.0,,,0,1319,[0],stimuli/0110100.jpg,,,243318,,prediction_trial,232,image-keyboard-response,,
347,Experiment 5,,,,,,,,,0,,,,,,,,,,,,,0.0-208.0,,, ,128,,stimuli/01101000.jpg,,,243447,,feedback_trial,233,image-keyboard-response,,
347,Experiment 5,False,0,,True,True,100,2,,2,False,False,,False,False,011,,,,,,,0.0-209.0,,,1,691,[2],stimuli/2100011.jpg,,,244138,,prediction_trial,234,image-keyboard-response,,
347,Experiment 5,,,,,,,,,2,,,,,,,,,,,,,0.0-210.0,,, ,127,,stimuli/21000112.jpg,,,244266,,feedback_trial,235,image-keyboard-response,,
347,Experiment 5,True,1,,True,True,010,2,,2,False,False,,False,False,101,,,,,,,0.0-211.0,,,2,605,[2],stimuli/2010101.jpg,,,244871,,prediction_trial,236,image-keyboard-response,,
347,Experiment 5,,,,,,,,,2,,,,,,,,,,,,,0.0-212.0,,, ,126,,stimuli/20101012.jpg,,,244998,,feedback_trial,237,image-keyboard-response,,
347,Experiment 5,False,0,,True,True,110,2,,2,False,False,,False,False,011,,,,,,,0.0-213.0,,,1,561,[2],stimuli/2110011.jpg,,,245559,,prediction_trial,238,image-keyboard-response,,
347,Experiment 5,,,,,,,,,2,,,,,,,,,,,,,0.0-214.0,,, ,124,,stimuli/21100112.jpg,,,245686,,feedback_trial,239,image-keyboard-response,,
347,Experiment 5,True,1,,False,False,111,0,,0,False,False,,True,True,001,,,,,,,0.0-215.0,,,0,517,[0],stimuli/0111001.jpg,,,246203,,prediction_trial,240,image-keyboard-response,,
347,Experiment 5,,,,,,,,,0,,,,,,,,,,,,,0.0-216.0,,, ,127,,stimuli/01110010.jpg,,,246331,,feedback_trial,241,image-keyboard-response,,
347,Experiment 5,True,1,,False,True,010,1,,1,False,True,,True,True,101,,,,,,,0.0-217.0,,,1,430,[1],stimuli/1010101.jpg,,,246762,,prediction_trial,242,image-keyboard-response,,
347,Experiment 5,,,,,,,,,1,,,,,,,,,,,,,0.0-218.0,,, ,128,,stimuli/10101011.jpg,,,246890,,feedback_trial,243,image-keyboard-response,,
347,Experiment 5,True,1,,True,True,100,1,,1,False,False,,False,False,111,,,,,,,0.0-219.0,,,1,756,[1],stimuli/1100111.jpg,,,247646,,prediction_trial,244,image-keyboard-response,,
347,Experiment 5,,,,,,,,,1,,,,,,,,,,,,,0.0-220.0,,, ,127,,stimuli/11001111.jpg,,,247774,,feedback_trial,245,image-keyboard-response,,
347,Experiment 5,True,1,,True,True,001,1,,1,True,True,,True,True,000,,,,,,,0.0-221.0,,,1,474,[1],stimuli/1001000.jpg,,,248248,,prediction_trial,246,image-keyboard-response,,
347,Experiment 5,,,,,,,,,1,,,,,,,,,,,,,0.0-222.0,,, ,103,,stimuli/10010001.jpg,,,248354,,feedback_trial,247,image-keyboard-response,,
347,Experiment 5,True,1,,True,True,100,2,,2,True,True,,True,True,010,,,,,,,0.0-223.0,,,2,583,[2],stimuli/2100010.jpg,,,248938,,prediction_trial,248,image-keyboard-response,,
347,Experiment 5,,,,,,,,,2,,,,,,,,,,,,,0.0-224.0,,, ,126,,stimuli/21000102.jpg,,,249064,,feedback_trial,249,image-keyboard-response,,
347,Experiment 5,True,1,,True,True,110,2,,2,True,True,,True,True,100,,,,,,,0.0-225.0,,,2,431,[2],stimuli/2110100.jpg,,,249496,,prediction_trial,250,image-keyboard-response,,
347,Experiment 5,,,,,,,,,2,,,,,,,,,,,,,0.0-226.0,,, ,125,,stimuli/21101002.jpg,,,249622,,feedback_trial,251,image-keyboard-response,,
347,Experiment 5,True,1,,True,True,001,1,,1,False,False,,False,False,011,,,,,,,0.0-227.0,,,1,605,[1],stimuli/1001011.jpg,,,250227,,prediction_trial,252,image-keyboard-response,,
347,Experiment 5,,,,,,,,,1,,,,,,,,,,,,,0.0-228.0,,, ,148,,stimuli/10010111.jpg,,,250376,,feedback_trial,253,image-keyboard-response,,
347,Experiment 5,True,1,,False,False,111,2,,2,False,False,,True,True,000,,,,,,,0.0-229.0,,,2,432,[2],stimuli/2111000.jpg,,,250808,,prediction_trial,254,image-keyboard-response,,
347,Experiment 5,,,,,,,,,2,,,,,,,,,,,,,0.0-230.0,,, ,123,,stimuli/21110002.jpg,,,250934,,feedback_trial,255,image-keyboard-response,,
347,Experiment 5,True,1,,True,True,010,2,,2,True,True,,True,True,000,,,,,,,0.0-231.0,,,2,411,[2],stimuli/2010000.jpg,,,251345,,prediction_trial,256,image-keyboard-response,,
347,Experiment 5,,,,,,,,,2,,,,,,,,,,,,,0.0-232.0,,, ,125,,stimuli/20100002.jpg,,,251471,,feedback_trial,257,image-keyboard-response,,
347,Experiment 5,True,1,,False,False,110,1,,1,False,False,,True,True,101,,,,,,,0.0-233.0,,,1,475,[1],stimuli/1110101.jpg,,,251946,,prediction_trial,258,image-keyboard-response,,
347,Experiment 5,,,,,,,,,1,,,,,,,,,,,,,0.0-234.0,,, ,123,,stimuli/11101011.jpg,,,252069,,feedback_trial,259,image-keyboard-response,,
347,Experiment 5,True,1,,False,False,110,0,,0,False,False,,True,True,010,,,,,,,0.0-235.0,,,0,477,[0],stimuli/0110010.jpg,,,252546,,prediction_trial,260,image-keyboard-response,,
347,Experiment 5,,,,,,,,,0,,,,,,,,,,,,,0.0-236.0,,, ,128,,stimuli/01100100.jpg,,,252675,,feedback_trial,261,image-keyboard-response,,
347,Experiment 5,False,0,,False,True,100,0,,0,False,False,,False,False,101,,,,,,,0.0-237.0,,,2,757,[0],stimuli/0100101.jpg,,,253433,,prediction_trial,262,image-keyboard-response,,
347,Experiment 5,,,,,,,,,0,,,,,,,,,,,,,0.0-238.0,,, ,125,,stimuli/01001010.jpg,,,253559,,feedback_trial,263,image-keyboard-response,,
347,Experiment 5,True,1,,False,False,110,1,,1,False,False,,False,False,011,,,,,,,0.0-239.0,,,1,603,[1],stimuli/1110011.jpg,,,254163,,prediction_trial,264,image-keyboard-response,,
347,Experiment 5,,,,,,,,,1,,,,,,,,,,,,,0.0-240.0,,, ,149,,stimuli/11100111.jpg,,,254312,,feedback_trial,265,image-keyboard-response,,
347,Experiment 5,True,1,,False,False,111,2,,2,False,False,,True,True,100,,,,,,,0.0-241.0,,,2,475,[2],stimuli/2111100.jpg,,,254788,,prediction_trial,266,image-keyboard-response,,
347,Experiment 5,,,,,,,,,2,,,,,,,,,,,,,0.0-242.0,,, ,122,,stimuli/21111002.jpg,,,254910,,feedback_trial,267,image-keyboard-response,,
347,Experiment 5,True,1,,False,False,011,1,,1,False,False,,True,True,001,,,,,,,0.0-243.0,,,1,413,[1],stimuli/1011001.jpg,,,255324,,prediction_trial,268,image-keyboard-response,,
347,Experiment 5,,,,,,,,,1,,,,,,,,,,,,,0.0-244.0,,, ,149,,stimuli/10110011.jpg,,,255473,,feedback_trial,269,image-keyboard-response,,
347,Experiment 5,True,1,,False,False,111,1,,1,False,False,,True,True,100,,,,,,,0.0-245.0,,,1,559,[1],stimuli/1111100.jpg,,,256034,,prediction_trial,270,image-keyboard-response,,
347,Experiment 5,,,,,,,,,1,,,,,,,,,,,,,0.0-246.0,,, ,171,,stimuli/11111001.jpg,,,256205,,feedback_trial,271,image-keyboard-response,,
347,Experiment 5,True,1,,True,True,000,1,,1,True,True,,True,True,001,,,,,,,0.0-247.0,,,1,473,[1],stimuli/1000001.jpg,,,256679,,prediction_trial,272,image-keyboard-response,,
347,Experiment 5,,,,,,,,,1,,,,,,,,,,,,,0.0-248.0,,, ,149,,stimuli/10000011.jpg,,,256828,,feedback_trial,273,image-keyboard-response,,
347,Experiment 5,False,0,,True,True,011,0,,0,False,False,,False,False,110,,,,,,,0.0-249.0,,,1,540,[0],stimuli/0011110.jpg,,,257368,,prediction_trial,274,image-keyboard-response,,
347,Experiment 5,,,,,,,,,0,,,,,,,,,,,,,0.0-250.0,,, ,148,,stimuli/00111100.jpg,,,257517,,feedback_trial,275,image-keyboard-response,,
347,Experiment 5,True,1,,True,True,001,1,,1,True,True,,True,True,001,,,,,,,0.0-251.0,,,1,604,[1],stimuli/1001001.jpg,,,258121,,prediction_trial,276,image-keyboard-response,,
347,Experiment 5,,,,,,,,,1,,,,,,,,,,,,,0.0-252.0,,, ,127,,stimuli/10010011.jpg,,,258249,,feedback_trial,277,image-keyboard-response,,
347,Experiment 5,True,1,,True,True,000,1,,1,False,False,,False,False,011,,,,,,,0.0-253.0,,,1,602,[1],stimuli/1000011.jpg,,,258853,,prediction_trial,278,image-keyboard-response,,
347,Experiment 5,,,,,,,,,1,,,,,,,,,,,,,0.0-254.0,,, ,127,,stimuli/10000111.jpg,,,258981,,feedback_trial,279,image-keyboard-response,,
347,Experiment 5,False,0,,True,True,000,0,,0,False,False,,False,False,111,,,,,,,0.0-255.0,,,1,431,[0],stimuli/0000111.jpg,,,259412,,prediction_trial,280,image-keyboard-response,,
347,Experiment 5,,,,,,,,,0,,,,,,,,,,,,,0.0-256.0,,, ,127,,stimuli/00001110.jpg,,,259539,,feedback_trial,281,image-keyboard-response,,
347,Experiment 5,True,1,,False,False,101,2,,2,False,False,,True,True,010,,,,,,,0.0-257.0,,,2,584,[2],stimuli/2101010.jpg,,,260123,,prediction_trial,282,image-keyboard-response,,
347,Experiment 5,,,,,,,,,2,,,,,,,,,,,,,0.0-258.0,,, ,78,,stimuli/21010102.jpg,,,260202,,feedback_trial,283,image-keyboard-response,,
347,Experiment 5,True,1,,False,False,110,0,,0,False,False,,True,True,011,,,,,,,0.0-259.0,,,0,496,[0],stimuli/0110011.jpg,,,260701,,prediction_trial,284,image-keyboard-response,,
347,Experiment 5,,,,,,,,,0,,,,,,,,,,,,,0.0-260.0,,, ,125,,stimuli/01100110.jpg,,,260826,,feedback_trial,285,image-keyboard-response,,
347,Experiment 5,False,0,,True,True,010,0,,0,False,False,,False,False,101,,,,,,,0.0-261.0,,,2,565,[0],stimuli/0010101.jpg,,,261392,,prediction_trial,286,image-keyboard-response,,
347,Experiment 5,,,,,,,,,0,,,,,,,,,,,,,0.0-262.0,,, ,126,,stimuli/00101010.jpg,,,261518,,feedback_trial,287,image-keyboard-response,,
347,Experiment 5,False,0,,False,False,111,0,,0,False,False,,False,False,111,,,,,,,0.0-263.0,,,1,625,[0],stimuli/0111111.jpg,,,262144,,prediction_trial,288,image-keyboard-response,,
347,Experiment 5,,,,,,,,,0,,,,,,,,,,,,,0.0-264.0,,, ,124,,stimuli/01111110.jpg,,,262268,,feedback_trial,289,image-keyboard-response,,
347,Experiment 5,True,1,,True,True,001,0,,0,True,True,,True,True,010,,,,,,,0.0-265.0,,,0,476,[0],stimuli/0001010.jpg,,,262745,,prediction_trial,290,image-keyboard-response,,
347,Experiment 5,,,,,,,,,0,,,,,,,,,,,,,0.0-266.0,,, ,128,,stimuli/00010100.jpg,,,262874,,feedback_trial,291,image-keyboard-response,,
347,Experiment 5,False,0,,True,True,000,0,,0,False,False,,False,False,110,,,,,,,0.0-267.0,,,1,712,[0],stimuli/0000110.jpg,,,263587,,prediction_trial,292,image-keyboard-response,,
347,Experiment 5,,,,,,,,,0,,,,,,,,,,,,,0.0-268.0,,, ,148,,stimuli/00001100.jpg,,,263736,,feedback_trial,293,image-keyboard-response,,
347,Experiment 5,False,0,,False,False,111,2,,2,False,False,,False,False,111,,,,,,,0.0-269.0,,,1,1038,[2],stimuli/2111111.jpg,,,264774,,prediction_trial,294,image-keyboard-response,,
347,Experiment 5,,,,,,,,,2,,,,,,,,,,,,,0.0-270.0,,, ,102,,stimuli/21111112.jpg,,,264876,,feedback_trial,295,image-keyboard-response,,
347,Experiment 5,False,0,,True,True,001,0,,0,False,False,,False,False,111,,,,,,,0.0-271.0,,,1,522,[0],stimuli/0001111.jpg,,,265399,,prediction_trial,296,image-keyboard-response,,
347,Experiment 5,,,,,,,,,0,,,,,,,,,,,,,0.0-272.0,,, ,101,,stimuli/00011110.jpg,,,265500,,feedback_trial,297,image-keyboard-response,,
347,Experiment 5,True,1,,True,True,000,0,,0,True,True,,True,True,001,,,,,,,0.0-273.0,,,0,519,[0],stimuli/0000001.jpg,,,266020,,prediction_trial,298,image-keyboard-response,,
347,Experiment 5,,,,,,,,,0,,,,,,,,,,,,,0.0-274.0,,, ,126,,stimuli/00000010.jpg,,,266149,,feedback_trial,299,image-keyboard-response,,
347,Experiment 5,True,1,,True,True,100,1,,1,True,True,,True,True,100,,,,,,,0.0-275.0,,,1,409,[1],stimuli/1100100.jpg,,,266558,,prediction_trial,300,image-keyboard-response,,
347,Experiment 5,,,,,,,,,1,,,,,,,,,,,,,0.0-276.0,,, ,101,,stimuli/11001001.jpg,,,266660,,feedback_trial,301,image-keyboard-response,,
347,Experiment 5,False,0,,True,True,110,2,,2,False,False,,False,False,111,,,,,,,0.0-277.0,,,1,522,[2],stimuli/2110111.jpg,,,267182,,prediction_trial,302,image-keyboard-response,,
347,Experiment 5,,,,,,,,,2,,,,,,,,,,,,,0.0-278.0,,, ,127,,stimuli/21101112.jpg,,,267310,,feedback_trial,303,image-keyboard-response,,
347,Experiment 5,True,1,,False,False,110,1,,1,False,False,,True,True,100,,,,,,,0.0-279.0,,,1,409,[1],stimuli/1110100.jpg,,,267719,,prediction_trial,304,image-keyboard-response,,
347,Experiment 5,,,,,,,,,1,,,,,,,,,,,,,0.0-280.0,,, ,127,,stimuli/11101001.jpg,,,267847,,feedback_trial,305,image-keyboard-response,,
347,Experiment 5,True,1,,True,True,100,2,,2,False,True,,False,True,001,,,,,,,0.0-281.0,,,2,671,[2],stimuli/2100001.jpg,,,268518,,prediction_trial,306,image-keyboard-response,,
347,Experiment 5,,,,,,,,,2,,,,,,,,,,,,,0.0-282.0,,, ,123,,stimuli/21000012.jpg,,,268644,,feedback_trial,307,image-keyboard-response,,
347,Experiment 5,True,1,,True,True,110,2,,2,False,True,,False,True,001,,,,,,,0.0-283.0,,,2,432,[2],stimuli/2110001.jpg,,,269076,,prediction_trial,308,image-keyboard-response,,
347,Experiment 5,,,,,,,,,2,,,,,,,,,,,,,0.0-284.0,,, ,147,,stimuli/21100012.jpg,,,269224,,feedback_trial,309,image-keyboard-response,,
347,Experiment 5,True,1,,False,True,100,0,,0,False,True,,True,True,001,,,,,,,0.0-285.0,,,0,582,[0],stimuli/0100001.jpg,,,269806,,prediction_trial,310,image-keyboard-response,,
347,Experiment 5,,,,,,,,,0,,,,,,,,,,,,,0.0-286.0,,, ,279,,stimuli/01000010.jpg,,,270086,,feedback_trial,311,image-keyboard-response,,
347,Experiment 5,True,1,,True,True,011,0,,0,False,True,,False,True,100,,,,,,,0.0-287.0,,,0,537,[0],stimuli/0011100.jpg,,,270624,,prediction_trial,312,image-keyboard-response,,
347,Experiment 5,,,,,,,,,0,,,,,,,,,,,,,0.0-288.0,,, ,171,,stimuli/00111000.jpg,,,270796,,feedback_trial,313,image-keyboard-response,,
347,Experiment 5,False,0,,True,True,100,2,,2,False,False,,False,False,111,,,,,,,0.0-289.0,,,0,712,[2],stimuli/2100111.jpg,,,271508,,prediction_trial,314,image-keyboard-response,,
347,Experiment 5,,,,,,,,,2,,,,,,,,,,,,,0.0-290.0,,, ,100,,stimuli/21001112.jpg,,,271611,,feedback_trial,315,image-keyboard-response,,
347,Experiment 5,True,1,,True,True,001,1,,1,True,True,,True,True,100,,,,,,,0.0-291.0,,,1,478,[1],stimuli/1001100.jpg,,,272089,,prediction_trial,316,image-keyboard-response,,
347,Experiment 5,,,,,,,,,1,,,,,,,,,,,,,0.0-292.0,,, ,124,,stimuli/10011001.jpg,,,272213,,feedback_trial,317,image-keyboard-response,,
347,Experiment 5,,,32,,,,,0.6055555555555556,,,,,,,,Non-Hispanic,,,,If I had a 1/3 chance i tended to choose middle.,Male,0.0-293.0,0.7569444444444444,White,"{'age': '32', 'race': 'White', 'gender': 'Male', 'feedback': 'If I had a 1/3 chance i tended to choose middle.', 'ethnicity': 'Non-Hispanic', 'other_race': '', 'other_gender': ''}",25421,,,,,297635,,exit_survey,318,survey-html-form,,
347,Experiment 5,,,,,,,,,,,,,,,,,,,,,,0.0-294.0,,,0,5122,,"<div style=""text-align:left; padding:10px; max-width:900px;""><center><p><b>Study Debriefing</b></p></center><p>Judgement and decision making are important aspects of public and private life. Using surveys like the one you just completed, we are examining the factors that go into making social decisions.</p><p><b>How is this being tested? </b> We have asked you to respond to stories or videos that differ on several important factors. By isolating different variables that are involved in social thought, we can better understand how we arrive at complex decision-making. For example, some actions are seen as more worthy of blame if they are performed intentionally. Harming someone on purpose is generally worse than harming someone by accident, or even harming someone in a way that is foreseen but not intended.</p><p><b>Main questions and hypotheses: </b>A fundamental goal of our research is to understand the cognitive and emotional factors that influence social judgment and decision-making. We are studying these factors by presenting people with hypothetical questions that vary in specific ways and seeing which factors make a difference. Some people filled out the same survey that you just filled out. Others got slightly different surveys.</p><p><b>Why is this important to study? </b>By comparing answers on these important factors, we learn about what factors affect social judgment. This has crucial implications for many public domains, including the legal system.</p><p><b>How to learn more: </b>If you are interested in learning more, you may want to consult the following articles:<p><p style=""margin-left:10%; margin-right:10%;"">Phillips, J., & Cushman, F. (2017). Morality constrains the default representation of what is possible. Proceedings of the National Academy of Sciences of the United States of America, 114(18), 46494654. https://doi.org/10.1073/pnas.1619717114<p style=""margin-left:10%; margin-right:10%;"">Phillips, J., Morris, A., & Cushman, F. (2019). How we know what not to think. Trends in Cognitive Sciences, 23(12), 10261040. https://doi.org/10.1016/j.tics.2019.09.007<p style=""margin-left:10%; margin-right:10%;"">Phillips, J., Buckwalter, W., Cushman, F., Friedman, O., Martin, A., Turri, J., Santos, L., & Knobe, J. (2020). Knowledge before Belief. Behavioral and Brain Sciences, 1-37. doi:10.1017/S0140525X20000618</p><p><b>How to contact the researcher:</b> If you have questions or concerns about your participation or payment, or want to request a summary of research findings, please contact the Primary Investigator: Dr. Jonathan Phillips, at Jonathan.S.Phillips@dartmouth.edu.Whom to contact about your rights in this research: If you have questions, concerns, complaints, or suggestions about the present research, you may call the Office of the Committee for the Protection of Human Subjects at Dartmouth College (603) 646-6482 during normal business hours.</p><p><b>Thank you for your participation!<b/></p>",,,302758,,,319,html-button-response,,
355,Experiment 5,,,,,,,,,,,,,,,,,[],[],[],,,0.0-0.0,,,,,,,,True,1991,False,,0,preload,,
355,Experiment 5,,,,,,,,,,,,,,,,,,,,,,0.0-1.0,,,,,,,,True,3890,,,1,fullscreen,,
355,Experiment 5,,,,,,,,,,,,,,,,,,,,,,0.0-2.0,,,0,1354,,"<p><b>Consent Form</b></p> <div style=""text-align:left;background-color:lightgrey; padding:20px; max-width:900px;""><p>Please consider this information carefully before deciding whether to participate in this research.</p> <p>The purpose of this research is to examine which factors influence social judgment and decision-making. You will be asked to make judgements about individuals and actions in social scenarios. We are simply interested in your judgement. The study will take less than 1 hour to complete, and you will receive less than $20 on Prolific. Your compensation and time commitment are specified in the study description. There are no anticipated risks associated with participating in this study. The effects of participating should be comparable to those you would ordinarily experience from viewing a computer monitor and using a mouse or keyboard for a similar amount of time. At the end of the study, we will provide an explanation of the questions that motivate this line of research and will describe the potential implications. </p><p> Your participation in this study is completely voluntary and you may refuse to participate or you may choose to withdraw at any time without penalty or loss of benefits to you which are otherwise entitled. Your participation in this study will remain confidential. No personally identifiable information will be associated with your data. Also, all analyses of the data will be averaged across all the participants, so your individual responses will never be specifically analyzed. </p><p> If you have questions or concerns about your participation or payment, or want to request a summary of research findings, please contact Dr. Jonathan Phillips at Jonathan.S.Phillips@dartmouth.edu. </p><p> Please save a copy of this form for your records. </p><p><b>Agreement: </b>The nature and purpose of this research have been sufficiently explained and I agree to participate in this study. I understand that I am free to withdraw at any time without incurring any penalty. Please consent by clicking the button below to continue. Otherwise, please exit the study at any time. </p>",,,5245,,,2,html-button-response,,
355,Experiment 5,,,,,,,,,,,,,,,,,,,,,,0.0-3.0-0.0,,,,21964,,,,,27210,,intro,3,instructions,"[{'page_index': 0, 'viewing_time': 858}, {'page_index': 1, 'viewing_time': 1179}, {'page_index': 2, 'viewing_time': 2266}, {'page_index': 3, 'viewing_time': 1171}, {'page_index': 4, 'viewing_time': 1281}, {'page_index': 5, 'viewing_time': 1885}, {'page_index': 6, 'viewing_time': 1490}, {'page_index': 7, 'viewing_time': 1488}, {'page_index': 8, 'viewing_time': 4340}, {'page_index': 9, 'viewing_time': 4099}, {'page_index': 10, 'viewing_time': 1302}, {'page_index': 11, 'viewing_time': 605}]",
355,Experiment 5,True,,,,,,,,2,,,,,,,,,,,,,0.0-3.0-1.0,,,2,1398,,stimuli/2000010.jpg,"{'ball_pos': 2, 'filepath': 'stimuli/2000010.jpg', 'ego_can_infer': True, 'ego_occluders': '010', 'alter_can_infer': True, 'alter_occluders': '000', 'ego_ball_visible': True, 'search_locations': [2], 'alter_ball_visible': True, 'collective_can_infer': True, 'collective_ball_visible': True}",,28615,,prediction_practice,4,image-keyboard-response,,
355,Experiment 5,,,,,,,,,2,,,,,,,,,,,,,0.0-3.0-2.0,,, ,1460,,stimuli/20000102.jpg,,,30079,,practrice_feedback,5,image-keyboard-response,,
355,Experiment 5,True,,,,,,,,0,,,,,,,,,,,,,0.0-3.0-3.0,,,0,638,,stimuli/0100011.jpg,"{'ball_pos': 0, 'filepath': 'stimuli/0100011.jpg', 'ego_can_infer': True, 'ego_occluders': '011', 'alter_can_infer': True, 'alter_occluders': '100', 'ego_ball_visible': True, 'search_locations': [0], 'alter_ball_visible': False, 'collective_can_infer': True, 'collective_ball_visible': False}",,30722,,prediction_practice,6,image-keyboard-response,,
355,Experiment 5,,,,,,,,,0,,,,,,,,,,,,,0.0-3.0-4.0,,, ,635,,stimuli/01000110.jpg,,,31359,,practrice_feedback,7,image-keyboard-response,,
355,Experiment 5,True,,,,,,,,2,,,,,,,,,,,,,0.0-3.0-5.0,,,2,548,,stimuli/2100010.jpg,"{'ball_pos': 2, 'filepath': 'stimuli/2100010.jpg', 'ego_can_infer': True, 'ego_occluders': '010', 'alter_can_infer': True, 'alter_occluders': '100', 'ego_ball_visible': True, 'search_locations': [2], 'alter_ball_visible': True, 'collective_can_infer': True, 'collective_ball_visible': True}",,31911,,prediction_practice,8,image-keyboard-response,,
355,Experiment 5,,,,,,,,,2,,,,,,,,,,,,,0.0-3.0-6.0,,, ,396,,stimuli/21000102.jpg,,,32311,,practrice_feedback,9,image-keyboard-response,,
355,Experiment 5,True,,,,,,,,2,,,,,,,,,,,,,0.0-3.0-7.0,,,2,508,,stimuli/2001100.jpg,"{'ball_pos': 2, 'filepath': 'stimuli/2001100.jpg', 'ego_can_infer': True, 'ego_occluders': '100', 'alter_can_infer': True, 'alter_occluders': '001', 'ego_ball_visible': True, 'search_locations': [2], 'alter_ball_visible': False, 'collective_can_infer': True, 'collective_ball_visible': False}",,32823,,prediction_practice,10,image-keyboard-response,,
355,Experiment 5,,,,,,,,,2,,,,,,,,,,,,,0.0-3.0-8.0,,, ,277,,stimuli/20011002.jpg,,,33103,,practrice_feedback,11,image-keyboard-response,,
355,Experiment 5,True,,,,,,,,0,,,,,,,,,,,,,0.0-3.0-9.0,,,0,413,,stimuli/0000011.jpg,"{'ball_pos': 0, 'filepath': 'stimuli/0000011.jpg', 'ego_can_infer': True, 'ego_occluders': '011', 'alter_can_infer': True, 'alter_occluders': '000', 'ego_ball_visible': True, 'search_locations': [0], 'alter_ball_visible': True, 'collective_can_infer': True, 'collective_ball_visible': True}",,33519,,prediction_practice,12,image-keyboard-response,,
355,Experiment 5,,,,,,,,,0,,,,,,,,,,,,,0.0-3.0-10.0,,, ,213,,stimuli/00000110.jpg,,,33735,,practrice_feedback,13,image-keyboard-response,,
355,Experiment 5,False,,,,,,,,0,,,,,,,,,,,,,0.0-3.0-11.0,,,1,1580,,stimuli/0010111.jpg,"{'ball_pos': 0, 'filepath': 'stimuli/0010111.jpg', 'ego_can_infer': False, 'ego_occluders': '111', 'alter_can_infer': True, 'alter_occluders': '010', 'ego_ball_visible': False, 'search_locations': [0], 'alter_ball_visible': True, 'collective_can_infer': False, 'collective_ball_visible': False}",,35319,,prediction_practice,14,image-keyboard-response,,
355,Experiment 5,,,,,,,,,0,,,,,,,,,,,,,0.0-3.0-12.0,,, ,1029,,stimuli/00101110.jpg,,,36351,,practrice_feedback,15,image-keyboard-response,,
355,Experiment 5,False,,,,,,,,1,,,,,,,,,,,,,0.0-3.0-13.0,,,2,765,,stimuli/1101011.jpg,"{'ball_pos': 1, 'filepath': 'stimuli/1101011.jpg', 'ego_can_infer': False, 'ego_occluders': '011', 'alter_can_infer': True, 'alter_occluders': '101', 'ego_ball_visible': False, 'search_locations': [1], 'alter_ball_visible': True, 'collective_can_infer': False, 'collective_ball_visible': False}",,37119,,prediction_practice,16,image-keyboard-response,,
355,Experiment 5,,,,,,,,,1,,,,,,,,,,,,,0.0-3.0-14.0,,, ,573,,stimuli/11010111.jpg,,,37704,,practrice_feedback,17,image-keyboard-response,,
355,Experiment 5,True,,,,,,,,1,,,,,,,,,,,,,0.0-3.0-15.0,,,1,787,,stimuli/1011101.jpg,"{'ball_pos': 1, 'filepath': 'stimuli/1011101.jpg', 'ego_can_infer': True, 'ego_occluders': '101', 'alter_can_infer': False, 'alter_occluders': '011', 'ego_ball_visible': True, 'search_locations': [1], 'alter_ball_visible': False, 'collective_can_infer': False, 'collective_ball_visible': False}",,38495,,prediction_practice,18,image-keyboard-response,,
355,Experiment 5,,,,,,,,,1,,,,,,,,,,,,,0.0-3.0-16.0,,, ,372,,stimuli/10111011.jpg,,,38871,,practrice_feedback,19,image-keyboard-response,,
355,Experiment 5,True,,,,,,,,1,,,,,,,,,,,,,0.0-3.0-17.0,,,1,629,,stimuli/1100010.jpg,"{'ball_pos': 1, 'filepath': 'stimuli/1100010.jpg', 'ego_can_infer': True, 'ego_occluders': '010', 'alter_can_infer': True, 'alter_occluders': '100', 'ego_ball_visible': False, 'search_locations': [1], 'alter_ball_visible': True, 'collective_can_infer': True, 'collective_ball_visible': False}",,39503,,prediction_practice,20,image-keyboard-response,,
355,Experiment 5,,,,,,,,,1,,,,,,,,,,,,,0.0-3.0-18.0,,, ,413,,stimuli/11000101.jpg,,,39919,,practrice_feedback,21,image-keyboard-response,,
355,Experiment 5,True,,,,,,,,2,,,,,,,,,,,,,0.0-3.0-19.0,,,2,869,,stimuli/2000101.jpg,"{'ball_pos': 2, 'filepath': 'stimuli/2000101.jpg', 'ego_can_infer': False, 'ego_occluders': '101', 'alter_can_infer': True, 'alter_occluders': '000', 'ego_ball_visible': False, 'search_locations': [2], 'alter_ball_visible': True, 'collective_can_infer': False, 'collective_ball_visible': False}",,40791,,prediction_practice,22,image-keyboard-response,,
355,Experiment 5,,,,,,,,,2,,,,,,,,,,,,,0.0-3.0-20.0,,, ,469,,stimuli/20001012.jpg,,,41263,,practrice_feedback,23,image-keyboard-response,,
355,Experiment 5,,,,,,,,,,,,,,,,,,,,,,0.0-3.0-21.0,,,0,3634,,"Now that you've had some practice, you'll be tested with a couple of easy trials. If you correctly predict the ball's location, you'll move on to complete the experiment!",,,44898,,,24,html-button-response,,
355,Experiment 5,True,,,,,,,,,,,arrowleft,,,,,,,,,,0.0-3.0-22.0-0.0,,,arrowleft,890,,stimuli/0000011.jpg,,,45791,,comprehension_quiz,25,image-keyboard-response,,
355,Experiment 5,True,,,,,,,,,,, ,,,,,,,,,,0.0-3.0-22.0-1.0,,, ,669,,stimuli/00000110.jpg,,,46463,,comprehension_quiz,26,image-keyboard-response,,
355,Experiment 5,True,,,,,,,,,,,arrowdown,,,,,,,,,,0.0-3.0-22.0-2.0,,,arrowdown,1036,,stimuli/1010010.jpg,,,47503,,comprehension_quiz,27,image-keyboard-response,,
355,Experiment 5,True,,,,,,,,,,, ,,,,,,,,,,0.0-3.0-22.0-3.0,,, ,349,,stimuli/10100101.jpg,,,47855,,comprehension_quiz,28,image-keyboard-response,,
355,Experiment 5,,,,,,,,,,,,,,,,,,,,,,0.0-4.0,,,0,1195,,The experiment will now begin.,,,49051,,,29,html-button-response,,
355,Experiment 5,True,1,,False,True,010,1,,1,False,True,,True,True,101,,,,,,,0.0-5.0,,,1,1077,[1],stimuli/1010101.jpg,,,50135,,prediction_trial,30,image-keyboard-response,,
355,Experiment 5,,,,,,,,,1,,,,,,,,,,,,,0.0-6.0,,, ,382,,stimuli/10101011.jpg,,,50527,,feedback_trial,31,image-keyboard-response,,
355,Experiment 5,False,0,,True,True,000,1,,1,False,False,,False,False,111,,,,,,,0.0-7.0,,,2,1012,[1],stimuli/1000111.jpg,,,51543,,prediction_trial,32,image-keyboard-response,,
355,Experiment 5,,,,,,,,,1,,,,,,,,,,,,,0.0-8.0,,, ,645,,stimuli/10001111.jpg,,,52191,,feedback_trial,33,image-keyboard-response,,
355,Experiment 5,True,1,,False,False,110,1,,1,False,False,,True,True,001,,,,,,,0.0-9.0,,,1,525,[1],stimuli/1110001.jpg,,,52719,,prediction_trial,34,image-keyboard-response,,
355,Experiment 5,,,,,,,,,1,,,,,,,,,,,,,0.0-10.0,,, ,277,,stimuli/11100011.jpg,,,52999,,feedback_trial,35,image-keyboard-response,,
355,Experiment 5,True,1,,True,True,010,0,,0,False,True,,False,True,100,,,,,,,0.0-11.0,,,0,741,[0],stimuli/0010100.jpg,,,53743,,prediction_trial,36,image-keyboard-response,,
355,Experiment 5,,,,,,,,,0,,,,,,,,,,,,,0.0-12.0,,, ,349,,stimuli/00101000.jpg,,,54095,,feedback_trial,37,image-keyboard-response,,
355,Experiment 5,True,1,,False,False,111,0,,0,False,False,,False,False,101,,,,,,,0.0-13.0,,,0,1044,[0],stimuli/0111101.jpg,,,55143,,prediction_trial,38,image-keyboard-response,,
355,Experiment 5,,,,,,,,,0,,,,,,,,,,,,,0.0-14.0,,, ,533,,stimuli/01111010.jpg,,,55679,,feedback_trial,39,image-keyboard-response,,
355,Experiment 5,True,1,,True,True,001,0,,0,False,False,,False,False,101,,,,,,,0.0-15.0,,,0,788,[0],stimuli/0001101.jpg,,,56471,,prediction_trial,40,image-keyboard-response,,
355,Experiment 5,,,,,,,,,0,,,,,,,,,,,,,0.0-16.0,,, ,524,,stimuli/00011010.jpg,,,56999,,feedback_trial,41,image-keyboard-response,,
355,Experiment 5,False,0,,True,True,000,2,,2,False,False,,False,False,111,,,,,,,0.0-17.0,,,0,613,[2],stimuli/2000111.jpg,,,57615,,prediction_trial,42,image-keyboard-response,,
355,Experiment 5,,,,,,,,,2,,,,,,,,,,,,,0.0-18.0,,, ,524,,stimuli/20001112.jpg,,,58143,,feedback_trial,43,image-keyboard-response,,
355,Experiment 5,True,1,,True,True,010,2,,2,True,True,,True,True,010,,,,,,,0.0-19.0,,,2,589,[2],stimuli/2010010.jpg,,,58735,,prediction_trial,44,image-keyboard-response,,
355,Experiment 5,,,,,,,,,2,,,,,,,,,,,,,0.0-20.0,,, ,292,,stimuli/20100102.jpg,,,59031,,feedback_trial,45,image-keyboard-response,,
355,Experiment 5,True,1,,True,True,011,0,,0,True,True,,True,True,001,,,,,,,0.0-21.0,,,0,588,[0],stimuli/0011001.jpg,,,59623,,prediction_trial,46,image-keyboard-response,,
355,Experiment 5,,,,,,,,,0,,,,,,,,,,,,,0.0-22.0,,, ,261,,stimuli/00110010.jpg,,,59887,,feedback_trial,47,image-keyboard-response,,
355,Experiment 5,True,1,,True,True,001,0,,0,False,True,,False,True,100,,,,,,,0.0-23.0,,,0,717,[0],stimuli/0001100.jpg,,,60607,,prediction_trial,48,image-keyboard-response,,
355,Experiment 5,,,,,,,,,0,,,,,,,,,,,,,0.0-24.0,,, ,301,,stimuli/00011000.jpg,,,60911,,feedback_trial,49,image-keyboard-response,,
355,Experiment 5,True,1,,True,True,110,2,,2,True,True,,True,True,100,,,,,,,0.0-25.0,,,2,525,[2],stimuli/2110100.jpg,,,61439,,prediction_trial,50,image-keyboard-response,,
355,Experiment 5,,,,,,,,,2,,,,,,,,,,,,,0.0-26.0,,, ,213,,stimuli/21101002.jpg,,,61655,,feedback_trial,51,image-keyboard-response,,
355,Experiment 5,True,1,,False,False,111,2,,2,False,False,,True,True,110,,,,,,,0.0-27.0,,,2,485,[2],stimuli/2111110.jpg,,,62143,,prediction_trial,52,image-keyboard-response,,
355,Experiment 5,,,,,,,,,2,,,,,,,,,,,,,0.0-28.0,,, ,206,,stimuli/21111102.jpg,,,62352,,feedback_trial,53,image-keyboard-response,,
355,Experiment 5,False,0,,False,True,100,0,,0,False,False,,False,False,111,,,,,,,0.0-29.0,,,2,1188,[0],stimuli/0100111.jpg,,,63543,,prediction_trial,54,image-keyboard-response,,
355,Experiment 5,,,,,,,,,0,,,,,,,,,,,,,0.0-30.0,,, ,437,,stimuli/01001110.jpg,,,63983,,feedback_trial,55,image-keyboard-response,,
355,Experiment 5,True,1,,False,False,101,2,,2,False,False,,False,False,111,,,,,,,0.0-31.0,,,2,805,[2],stimuli/2101111.jpg,,,64791,,prediction_trial,56,image-keyboard-response,,
355,Experiment 5,,,,,,,,,2,,,,,,,,,,,,,0.0-32.0,,, ,445,,stimuli/21011112.jpg,,,65239,,feedback_trial,57,image-keyboard-response,,
355,Experiment 5,True,1,,False,False,111,0,,0,False,False,,True,True,000,,,,,,,0.0-33.0,,,0,509,[0],stimuli/0111000.jpg,,,65751,,prediction_trial,58,image-keyboard-response,,
355,Experiment 5,,,,,,,,,0,,,,,,,,,,,,,0.0-34.0,,, ,205,,stimuli/01110000.jpg,,,65959,,feedback_trial,59,image-keyboard-response,,
355,Experiment 5,True,1,,False,False,111,0,,0,False,False,,True,True,011,,,,,,,0.0-35.0,,,0,485,[0],stimuli/0111011.jpg,,,66447,,prediction_trial,60,image-keyboard-response,,
355,Experiment 5,,,,,,,,,0,,,,,,,,,,,,,0.0-36.0,,, ,180,,stimuli/01110110.jpg,,,66631,,feedback_trial,61,image-keyboard-response,,
355,Experiment 5,True,1,,True,True,000,2,,2,True,True,,True,True,110,,,,,,,0.0-37.0,,,2,516,[2],stimuli/2000110.jpg,,,67151,,prediction_trial,62,image-keyboard-response,,
355,Experiment 5,,,,,,,,,2,,,,,,,,,,,,,0.0-38.0,,, ,205,,stimuli/20001102.jpg,,,67359,,feedback_trial,63,image-keyboard-response,,
355,Experiment 5,True,1,,False,False,101,2,,2,False,False,,True,True,000,,,,,,,0.0-39.0,,,2,509,[2],stimuli/2101000.jpg,,,67871,,prediction_trial,64,image-keyboard-response,,
355,Experiment 5,,,,,,,,,2,,,,,,,,,,,,,0.0-40.0,,, ,157,,stimuli/21010002.jpg,,,68031,,feedback_trial,65,image-keyboard-response,,
355,Experiment 5,True,1,,False,False,101,2,,2,False,False,,True,True,110,,,,,,,0.0-41.0,,,2,460,[2],stimuli/2101110.jpg,,,68495,,prediction_trial,66,image-keyboard-response,,
355,Experiment 5,,,,,,,,,2,,,,,,,,,,,,,0.0-42.0,,, ,117,,stimuli/21011102.jpg,,,68615,,feedback_trial,67,image-keyboard-response,,
355,Experiment 5,True,1,,True,True,100,2,,2,True,True,,True,True,110,,,,,,,0.0-43.0,,,2,404,[2],stimuli/2100110.jpg,,,69023,,prediction_trial,68,image-keyboard-response,,
355,Experiment 5,,,,,,,,,2,,,,,,,,,,,,,0.0-44.0,,, ,141,,stimuli/21001102.jpg,,,69167,,feedback_trial,69,image-keyboard-response,,
355,Experiment 5,True,1,,False,True,001,2,,2,False,True,,True,True,100,,,,,,,0.0-45.0,,,2,412,[2],stimuli/2001100.jpg,,,69583,,prediction_trial,70,image-keyboard-response,,
355,Experiment 5,,,,,,,,,2,,,,,,,,,,,,,0.0-46.0,,, ,116,,stimuli/20011002.jpg,,,69703,,feedback_trial,71,image-keyboard-response,,
355,Experiment 5,True,1,,False,False,111,1,,1,False,False,,True,True,001,,,,,,,0.0-47.0,,,1,829,[1],stimuli/1111001.jpg,,,70535,,prediction_trial,72,image-keyboard-response,,
355,Experiment 5,,,,,,,,,1,,,,,,,,,,,,,0.0-48.0,,, ,117,,stimuli/11110011.jpg,,,70655,,feedback_trial,73,image-keyboard-response,,
355,Experiment 5,True,1,,False,False,011,2,,2,False,False,,True,True,010,,,,,,,0.0-49.0,,,2,492,[2],stimuli/2011010.jpg,,,71159,,prediction_trial,74,image-keyboard-response,,
355,Experiment 5,,,,,,,,,2,,,,,,,,,,,,,0.0-50.0,,, ,173,,stimuli/20110102.jpg,,,71335,,feedback_trial,75,image-keyboard-response,,
355,Experiment 5,True,1,,True,True,011,0,,0,False,False,,False,False,101,,,,,,,0.0-51.0,,,0,557,[0],stimuli/0011101.jpg,,,71895,,prediction_trial,76,image-keyboard-response,,
355,Experiment 5,,,,,,,,,0,,,,,,,,,,,,,0.0-52.0,,, ,293,,stimuli/00111010.jpg,,,72191,,feedback_trial,77,image-keyboard-response,,
355,Experiment 5,True,1,,True,True,010,2,,2,True,True,,True,True,100,,,,,,,0.0-53.0,,,2,533,[2],stimuli/2010100.jpg,,,72727,,prediction_trial,78,image-keyboard-response,,
355,Experiment 5,,,,,,,,,2,,,,,,,,,,,,,0.0-54.0,,, ,197,,stimuli/20101002.jpg,,,72927,,feedback_trial,79,image-keyboard-response,,
355,Experiment 5,False,0,,False,False,110,1,,1,False,False,,False,False,111,,,,,,,0.0-55.0,,,2,637,[1],stimuli/1110111.jpg,,,73567,,prediction_trial,80,image-keyboard-response,,
355,Experiment 5,,,,,,,,,1,,,,,,,,,,,,,0.0-56.0,,, ,189,,stimuli/11101111.jpg,,,73759,,feedback_trial,81,image-keyboard-response,,
355,Experiment 5,True,1,,True,True,001,1,,1,False,True,,False,True,010,,,,,,,0.0-57.0,,,1,853,[1],stimuli/1001010.jpg,,,74615,,prediction_trial,82,image-keyboard-response,,
355,Experiment 5,,,,,,,,,1,,,,,,,,,,,,,0.0-58.0,,, ,364,,stimuli/10010101.jpg,,,74983,,feedback_trial,83,image-keyboard-response,,
355,Experiment 5,True,1,,False,False,111,1,,1,False,False,,True,True,101,,,,,,,0.0-59.0,,,1,460,[1],stimuli/1111101.jpg,,,75447,,prediction_trial,84,image-keyboard-response,,
355,Experiment 5,,,,,,,,,1,,,,,,,,,,,,,0.0-60.0,,, ,124,,stimuli/11111011.jpg,,,75575,,feedback_trial,85,image-keyboard-response,,
355,Experiment 5,True,1,,True,True,000,0,,0,False,True,,False,True,100,,,,,,,0.0-61.0,,,0,629,[0],stimuli/0000100.jpg,,,76207,,prediction_trial,86,image-keyboard-response,,
355,Experiment 5,,,,,,,,,0,,,,,,,,,,,,,0.0-62.0,,, ,133,,stimuli/00001000.jpg,,,76343,,feedback_trial,87,image-keyboard-response,,
355,Experiment 5,True,1,,False,False,110,0,,0,False,False,,False,False,101,,,,,,,0.0-63.0,,,0,853,[0],stimuli/0110101.jpg,,,77199,,prediction_trial,88,image-keyboard-response,,
355,Experiment 5,,,,,,,,,0,,,,,,,,,,,,,0.0-64.0,,, ,204,,stimuli/01101010.jpg,,,77407,,feedback_trial,89,image-keyboard-response,,
355,Experiment 5,True,1,,True,True,100,1,,1,True,True,,True,True,001,,,,,,,0.0-65.0,,,1,659,[1],stimuli/1100001.jpg,,,78079,,prediction_trial,90,image-keyboard-response,,
355,Experiment 5,,,,,,,,,1,,,,,,,,,,,,,0.0-66.0,,, ,149,,stimuli/11000011.jpg,,,78231,,feedback_trial,91,image-keyboard-response,,
355,Experiment 5,True,1,,False,False,110,0,,0,False,False,,False,True,100,,,,,,,0.0-67.0,,,0,549,[0],stimuli/0110100.jpg,,,78783,,prediction_trial,92,image-keyboard-response,,
355,Experiment 5,,,,,,,,,0,,,,,,,,,,,,,0.0-68.0,,, ,139,,stimuli/01101000.jpg,,,78927,,feedback_trial,93,image-keyboard-response,,
355,Experiment 5,True,1,,False,False,101,0,,0,False,False,,True,True,011,,,,,,,0.0-69.0,,,0,645,[0],stimuli/0101011.jpg,,,79575,,prediction_trial,94,image-keyboard-response,,
355,Experiment 5,,,,,,,,,0,,,,,,,,,,,,,0.0-70.0,,, ,132,,stimuli/01010110.jpg,,,79711,,feedback_trial,95,image-keyboard-response,,
355,Experiment 5,True,1,,True,True,000,1,,1,True,True,,True,True,100,,,,,,,0.0-71.0,,,1,509,[1],stimuli/1000100.jpg,,,80223,,prediction_trial,96,image-keyboard-response,,
355,Experiment 5,,,,,,,,,1,,,,,,,,,,,,,0.0-72.0,,, ,149,,stimuli/10001001.jpg,,,80375,,feedback_trial,97,image-keyboard-response,,
355,Experiment 5,True,1,,False,False,101,2,,2,False,False,,True,True,100,,,,,,,0.0-73.0,,,2,516,[2],stimuli/2101100.jpg,,,80895,,prediction_trial,98,image-keyboard-response,,
355,Experiment 5,,,,,,,,,2,,,,,,,,,,,,,0.0-74.0,,, ,155,,stimuli/21011002.jpg,,,81054,,feedback_trial,99,image-keyboard-response,,
355,Experiment 5,True,1,,False,False,011,1,,1,False,False,,False,False,011,,,,,,,0.0-75.0,,,1,734,[1],stimuli/1011011.jpg,,,81791,,prediction_trial,100,image-keyboard-response,,
355,Experiment 5,,,,,,,,,1,,,,,,,,,,,,,0.0-76.0,,, ,141,,stimuli/10110111.jpg,,,81935,,feedback_trial,101,image-keyboard-response,,
355,Experiment 5,True,1,,True,True,010,0,,0,True,True,,True,True,010,,,,,,,0.0-77.0,,,0,805,[0],stimuli/0010010.jpg,,,82743,,prediction_trial,102,image-keyboard-response,,
355,Experiment 5,,,,,,,,,0,,,,,,,,,,,,,0.0-78.0,,, ,93,,stimuli/00100100.jpg,,,82839,,feedback_trial,103,image-keyboard-response,,
355,Experiment 5,False,0,,True,True,000,2,,2,False,False,,False,False,011,,,,,,,0.0-79.0,,,1,768,[2],stimuli/2000011.jpg,,,83615,,prediction_trial,104,image-keyboard-response,,
355,Experiment 5,,,,,,,,,2,,,,,,,,,,,,,0.0-80.0,,, ,148,,stimuli/20000112.jpg,,,83767,,feedback_trial,105,image-keyboard-response,,
355,Experiment 5,True,1,,True,True,011,0,,0,False,False,,False,False,111,,,,,,,0.0-81.0,,,0,797,[0],stimuli/0011111.jpg,,,84567,,prediction_trial,106,image-keyboard-response,,
355,Experiment 5,,,,,,,,,0,,,,,,,,,,,,,0.0-82.0,,, ,229,,stimuli/00111110.jpg,,,84799,,feedback_trial,107,image-keyboard-response,,
355,Experiment 5,True,1,,False,False,111,0,,0,False,False,,False,True,100,,,,,,,0.0-83.0,,,0,516,[0],stimuli/0111100.jpg,,,85319,,prediction_trial,108,image-keyboard-response,,
355,Experiment 5,,,,,,,,,0,,,,,,,,,,,,,0.0-84.0,,, ,204,,stimuli/01111000.jpg,,,85527,,feedback_trial,109,image-keyboard-response,,
355,Experiment 5,True,1,,False,False,011,1,,1,False,False,,True,True,100,,,,,,,0.0-85.0,,,1,589,[1],stimuli/1011100.jpg,,,86119,,prediction_trial,110,image-keyboard-response,,
355,Experiment 5,,,,,,,,,1,,,,,,,,,,,,,0.0-86.0,,, ,685,,stimuli/10111001.jpg,,,86807,,feedback_trial,111,image-keyboard-response,,
355,Experiment 5,False,0,,False,False,110,0,,0,False,False,,False,False,110,,,,,,,0.0-87.0,,,1,900,[0],stimuli/0110110.jpg,,,87711,,prediction_trial,112,image-keyboard-response,,
355,Experiment 5,,,,,,,,,0,,,,,,,,,,,,,0.0-88.0,,, ,389,,stimuli/01101100.jpg,,,88103,,feedback_trial,113,image-keyboard-response,,
355,Experiment 5,True,1,,False,True,010,1,,1,False,True,,True,True,100,,,,,,,0.0-89.0,,,1,445,[1],stimuli/1010100.jpg,,,88551,,prediction_trial,114,image-keyboard-response,,
355,Experiment 5,,,,,,,,,1,,,,,,,,,,,,,0.0-90.0,,, ,141,,stimuli/10101001.jpg,,,88695,,feedback_trial,115,image-keyboard-response,,
355,Experiment 5,True,1,,True,True,001,1,,1,True,True,,True,True,100,,,,,,,0.0-91.0,,,1,544,[1],stimuli/1001100.jpg,,,89247,,prediction_trial,116,image-keyboard-response,,
355,Experiment 5,,,,,,,,,1,,,,,,,,,,,,,0.0-92.0,,, ,125,,stimuli/10011001.jpg,,,89375,,feedback_trial,117,image-keyboard-response,,
355,Experiment 5,True,1,,True,True,000,2,,2,False,True,,False,True,001,,,,,,,0.0-93.0,,,2,621,[2],stimuli/2000001.jpg,,,89999,,prediction_trial,118,image-keyboard-response,,
355,Experiment 5,,,,,,,,,2,,,,,,,,,,,,,0.0-94.0,,, ,173,,stimuli/20000012.jpg,,,90175,,feedback_trial,119,image-keyboard-response,,
355,Experiment 5,True,1,,False,False,111,2,,2,False,False,,False,False,011,,,,,,,0.0-95.0,,,2,805,[2],stimuli/2111011.jpg,,,90983,,prediction_trial,120,image-keyboard-response,,
355,Experiment 5,,,,,,,,,2,,,,,,,,,,,,,0.0-96.0,,, ,324,,stimuli/21110112.jpg,,,91311,,feedback_trial,121,image-keyboard-response,,
355,Experiment 5,True,1,,True,True,010,0,,0,True,True,,True,True,001,,,,,,,0.0-97.0,,,0,517,[0],stimuli/0010001.jpg,,,91831,,prediction_trial,122,image-keyboard-response,,
355,Experiment 5,,,,,,,,,0,,,,,,,,,,,,,0.0-98.0,,, ,157,,stimuli/00100010.jpg,,,91991,,feedback_trial,123,image-keyboard-response,,
355,Experiment 5,False,0,,False,False,111,0,,0,False,False,,False,False,111,,,,,,,0.0-99.0,,,1,557,[0],stimuli/0111111.jpg,,,92551,,prediction_trial,124,image-keyboard-response,,
355,Experiment 5,,,,,,,,,0,,,,,,,,,,,,,0.0-100.0,,, ,277,,stimuli/01111110.jpg,,,92831,,feedback_trial,125,image-keyboard-response,,
355,Experiment 5,True,1,,False,False,111,0,,0,False,False,,True,True,001,,,,,,,0.0-101.0,,,0,541,[0],stimuli/0111001.jpg,,,93375,,prediction_trial,126,image-keyboard-response,,
355,Experiment 5,,,,,,,,,0,,,,,,,,,,,,,0.0-102.0,,, ,205,,stimuli/01110010.jpg,,,93583,,feedback_trial,127,image-keyboard-response,,
355,Experiment 5,True,1,,True,True,000,2,,2,False,False,,False,False,101,,,,,,,0.0-103.0,,,2,580,[2],stimuli/2000101.jpg,,,94167,,prediction_trial,128,image-keyboard-response,,
355,Experiment 5,,,,,,,,,2,,,,,,,,,,,,,0.0-104.0,,, ,212,,stimuli/20001012.jpg,,,94383,,feedback_trial,129,image-keyboard-response,,
355,Experiment 5,False,0,,True,True,010,2,,2,False,False,,False,False,111,,,,,,,0.0-105.0,,,1,765,[2],stimuli/2010111.jpg,,,95152,,prediction_trial,130,image-keyboard-response,,
355,Experiment 5,,,,,,,,,2,,,,,,,,,,,,,0.0-106.0,,, ,260,,stimuli/20101112.jpg,,,95415,,feedback_trial,131,image-keyboard-response,,
355,Experiment 5,True,1,,False,False,111,0,,0,False,False,,False,False,110,,,,,,,0.0-107.0,,,0,669,[0],stimuli/0111110.jpg,,,96088,,prediction_trial,132,image-keyboard-response,,
355,Experiment 5,,,,,,,,,0,,,,,,,,,,,,,0.0-108.0,,, ,173,,stimuli/01111100.jpg,,,96263,,feedback_trial,133,image-keyboard-response,,
355,Experiment 5,False,0,,False,False,011,2,,2,False,False,,False,False,011,,,,,,,0.0-109.0,,,1,733,[2],stimuli/2011011.jpg,,,96999,,prediction_trial,134,image-keyboard-response,,
355,Experiment 5,,,,,,,,,2,,,,,,,,,,,,,0.0-110.0,,, ,213,,stimuli/20110112.jpg,,,97215,,feedback_trial,135,image-keyboard-response,,
355,Experiment 5,True,1,,False,False,011,1,,1,False,False,,True,True,000,,,,,,,0.0-111.0,,,1,540,[1],stimuli/1011000.jpg,,,97759,,prediction_trial,136,image-keyboard-response,,
355,Experiment 5,,,,,,,,,1,,,,,,,,,,,,,0.0-112.0,,, ,141,,stimuli/10110001.jpg,,,97903,,feedback_trial,137,image-keyboard-response,,
355,Experiment 5,False,0,,True,True,101,1,,1,False,False,,False,False,111,,,,,,,0.0-113.0,,,0,589,[1],stimuli/1101111.jpg,,,98495,,prediction_trial,138,image-keyboard-response,,
355,Experiment 5,,,,,,,,,1,,,,,,,,,,,,,0.0-114.0,,, ,269,,stimuli/11011111.jpg,,,98767,,feedback_trial,139,image-keyboard-response,,
355,Experiment 5,True,1,,False,False,110,1,,1,False,False,,False,True,010,,,,,,,0.0-115.0,,,1,581,[1],stimuli/1110010.jpg,,,99352,,prediction_trial,140,image-keyboard-response,,
355,Experiment 5,,,,,,,,,1,,,,,,,,,,,,,0.0-116.0,,, ,220,,stimuli/11100101.jpg,,,99575,,feedback_trial,141,image-keyboard-response,,
355,Experiment 5,True,1,,True,True,101,1,,1,True,True,,True,True,100,,,,,,,0.0-117.0,,,1,653,[1],stimuli/1101100.jpg,,,100231,,prediction_trial,142,image-keyboard-response,,
355,Experiment 5,,,,,,,,,1,,,,,,,,,,,,,0.0-118.0,,, ,149,,stimuli/11011001.jpg,,,100383,,feedback_trial,143,image-keyboard-response,,
355,Experiment 5,True,1,,True,True,001,1,,1,False,False,,False,False,011,,,,,,,0.0-119.0,,,1,500,[1],stimuli/1001011.jpg,,,100887,,prediction_trial,144,image-keyboard-response,,
355,Experiment 5,,,,,,,,,1,,,,,,,,,,,,,0.0-120.0,,, ,205,,stimuli/10010111.jpg,,,101095,,feedback_trial,145,image-keyboard-response,,
355,Experiment 5,True,1,,False,False,011,2,,2,False,False,,True,True,000,,,,,,,0.0-121.0,,,2,733,[2],stimuli/2011000.jpg,,,101831,,prediction_trial,146,image-keyboard-response,,
355,Experiment 5,,,,,,,,,2,,,,,,,,,,,,,0.0-122.0,,, ,125,,stimuli/20110002.jpg,,,101959,,feedback_trial,147,image-keyboard-response,,
355,Experiment 5,False,0,,True,True,100,1,,1,True,True,,True,True,100,,,,,,,0.0-123.0,,,0,541,[1],stimuli/1100100.jpg,,,102503,,prediction_trial,148,image-keyboard-response,,
355,Experiment 5,,,,,,,,,1,,,,,,,,,,,,,0.0-124.0,,, ,157,,stimuli/11001001.jpg,,,102663,,feedback_trial,149,image-keyboard-response,,
355,Experiment 5,True,1,,False,False,110,1,,1,False,False,,False,False,110,,,,,,,0.0-125.0,,,1,789,[1],stimuli/1110110.jpg,,,103455,,prediction_trial,150,image-keyboard-response,,
355,Experiment 5,,,,,,,,,1,,,,,,,,,,,,,0.0-126.0,,, ,269,,stimuli/11101101.jpg,,,103727,,feedback_trial,151,image-keyboard-response,,
355,Experiment 5,True,1,,False,False,110,1,,1,False,False,,True,True,100,,,,,,,0.0-127.0,,,1,429,[1],stimuli/1110100.jpg,,,104159,,prediction_trial,152,image-keyboard-response,,
355,Experiment 5,,,,,,,,,1,,,,,,,,,,,,,0.0-128.0,,, ,173,,stimuli/11101001.jpg,,,104335,,feedback_trial,153,image-keyboard-response,,
355,Experiment 5,True,1,,False,False,011,1,,1,False,False,,True,True,101,,,,,,,0.0-129.0,,,1,492,[1],stimuli/1011101.jpg,,,104831,,prediction_trial,154,image-keyboard-response,,
355,Experiment 5,,,,,,,,,1,,,,,,,,,,,,,0.0-130.0,,, ,149,,stimuli/10111011.jpg,,,104983,,feedback_trial,155,image-keyboard-response,,
355,Experiment 5,True,1,,False,False,111,1,,1,False,False,,True,True,000,,,,,,,0.0-131.0,,,1,420,[1],stimuli/1111000.jpg,,,105407,,prediction_trial,156,image-keyboard-response,,
355,Experiment 5,,,,,,,,,1,,,,,,,,,,,,,0.0-132.0,,, ,141,,stimuli/11110001.jpg,,,105551,,feedback_trial,157,image-keyboard-response,,
355,Experiment 5,True,1,,False,True,100,0,,0,False,True,,True,True,011,,,,,,,0.0-133.0,,,0,564,[0],stimuli/0100011.jpg,,,106119,,prediction_trial,158,image-keyboard-response,,
355,Experiment 5,,,,,,,,,0,,,,,,,,,,,,,0.0-134.0,,, ,189,,stimuli/01000110.jpg,,,106311,,feedback_trial,159,image-keyboard-response,,
355,Experiment 5,True,1,,False,False,111,2,,2,False,False,,True,True,100,,,,,,,0.0-135.0,,,2,485,[2],stimuli/2111100.jpg,,,106799,,prediction_trial,160,image-keyboard-response,,
355,Experiment 5,,,,,,,,,2,,,,,,,,,,,,,0.0-136.0,,, ,132,,stimuli/21111002.jpg,,,106936,,feedback_trial,161,image-keyboard-response,,
355,Experiment 5,True,1,,False,False,101,0,,0,False,False,,True,True,001,,,,,,,0.0-137.0,,,0,452,[0],stimuli/0101001.jpg,,,107391,,prediction_trial,162,image-keyboard-response,,
355,Experiment 5,,,,,,,,,0,,,,,,,,,,,,,0.0-138.0,,, ,117,,stimuli/01010010.jpg,,,107511,,feedback_trial,163,image-keyboard-response,,
355,Experiment 5,True,1,,False,False,111,2,,2,False,False,,True,True,000,,,,,,,0.0-139.0,,,2,397,[2],stimuli/2111000.jpg,,,107911,,prediction_trial,164,image-keyboard-response,,
355,Experiment 5,,,,,,,,,2,,,,,,,,,,,,,0.0-140.0,,, ,157,,stimuli/21110002.jpg,,,108072,,feedback_trial,165,image-keyboard-response,,
355,Experiment 5,False,0,,False,False,101,0,,0,False,False,,False,False,101,,,,,,,0.0-141.0,,,2,773,[0],stimuli/0101101.jpg,,,108848,,prediction_trial,166,image-keyboard-response,,
355,Experiment 5,,,,,,,,,0,,,,,,,,,,,,,0.0-142.0,,, ,197,,stimuli/01011010.jpg,,,109047,,feedback_trial,167,image-keyboard-response,,
355,Experiment 5,False,0,,True,True,110,2,,2,False,False,,False,False,111,,,,,,,0.0-143.0,,,1,941,[2],stimuli/2110111.jpg,,,110000,,prediction_trial,168,image-keyboard-response,,
355,Experiment 5,,,,,,,,,2,,,,,,,,,,,,,0.0-144.0,,, ,317,,stimuli/21101112.jpg,,,110319,,feedback_trial,169,image-keyboard-response,,
355,Experiment 5,True,1,,True,True,001,0,,0,True,True,,True,True,001,,,,,,,0.0-145.0,,,0,500,[0],stimuli/0001001.jpg,,,110823,,prediction_trial,170,image-keyboard-response,,
355,Experiment 5,,,,,,,,,0,,,,,,,,,,,,,0.0-146.0,,, ,117,,stimuli/00010010.jpg,,,110943,,feedback_trial,171,image-keyboard-response,,
355,Experiment 5,True,1,,True,True,001,0,,0,True,True,,True,True,000,,,,,,,0.0-147.0,,,0,501,[0],stimuli/0001000.jpg,,,111447,,prediction_trial,172,image-keyboard-response,,
355,Experiment 5,,,,,,,,,0,,,,,,,,,,,,,0.0-148.0,,, ,109,,stimuli/00010000.jpg,,,111559,,feedback_trial,173,image-keyboard-response,,
355,Experiment 5,True,1,,False,False,011,2,,2,False,False,,True,True,100,,,,,,,0.0-149.0,,,2,701,[2],stimuli/2011100.jpg,,,112264,,prediction_trial,174,image-keyboard-response,,
355,Experiment 5,,,,,,,,,2,,,,,,,,,,,,,0.0-150.0,,, ,141,,stimuli/20111002.jpg,,,112407,,feedback_trial,175,image-keyboard-response,,
355,Experiment 5,False,0,,False,False,011,1,,1,False,False,,False,False,110,,,,,,,0.0-151.0,,,0,1421,[1],stimuli/1011110.jpg,,,113832,,prediction_trial,176,image-keyboard-response,,
355,Experiment 5,,,,,,,,,1,,,,,,,,,,,,,0.0-152.0,,, ,189,,stimuli/10111101.jpg,,,114023,,feedback_trial,177,image-keyboard-response,,
355,Experiment 5,False,0,,False,True,001,2,,2,False,False,,False,False,101,,,,,,,0.0-153.0,,,0,613,[2],stimuli/2001101.jpg,,,114639,,prediction_trial,178,image-keyboard-response,,
355,Experiment 5,,,,,,,,,2,,,,,,,,,,,,,0.0-154.0,,, ,117,,stimuli/20011012.jpg,,,114759,,feedback_trial,179,image-keyboard-response,,
355,Experiment 5,False,0,,True,True,100,1,,1,False,False,,False,False,111,,,,,,,0.0-155.0,,,0,1261,[1],stimuli/1100111.jpg,,,116023,,prediction_trial,180,image-keyboard-response,,
355,Experiment 5,,,,,,,,,1,,,,,,,,,,,,,0.0-156.0,,, ,525,,stimuli/11001111.jpg,,,116551,,feedback_trial,181,image-keyboard-response,,
355,Experiment 5,True,1,,True,True,000,1,,1,False,False,,False,False,011,,,,,,,0.0-157.0,,,1,493,[1],stimuli/1000011.jpg,,,117047,,prediction_trial,182,image-keyboard-response,,
355,Experiment 5,,,,,,,,,1,,,,,,,,,,,,,0.0-158.0,,, ,333,,stimuli/10000111.jpg,,,117383,,feedback_trial,183,image-keyboard-response,,
355,Experiment 5,True,1,,True,True,101,1,,1,False,False,,False,False,011,,,,,,,0.0-159.0,,,1,429,[1],stimuli/1101011.jpg,,,117815,,prediction_trial,184,image-keyboard-response,,
355,Experiment 5,,,,,,,,,1,,,,,,,,,,,,,0.0-160.0,,, ,293,,stimuli/11010111.jpg,,,118112,,feedback_trial,185,image-keyboard-response,,
355,Experiment 5,True,1,,True,True,100,1,,1,False,False,,False,False,011,,,,,,,0.0-161.0,,,1,421,[1],stimuli/1100011.jpg,,,118535,,prediction_trial,186,image-keyboard-response,,
355,Experiment 5,,,,,,,,,1,,,,,,,,,,,,,0.0-162.0,,, ,340,,stimuli/11000111.jpg,,,118879,,feedback_trial,187,image-keyboard-response,,
355,Experiment 5,True,1,,True,True,001,1,,1,True,True,,True,True,001,,,,,,,0.0-163.0,,,1,557,[1],stimuli/1001001.jpg,,,119439,,prediction_trial,188,image-keyboard-response,,
355,Experiment 5,,,,,,,,,1,,,,,,,,,,,,,0.0-164.0,,, ,197,,stimuli/10010011.jpg,,,119639,,feedback_trial,189,image-keyboard-response,,
355,Experiment 5,True,1,,True,True,010,2,,2,False,False,,False,False,011,,,,,,,0.0-165.0,,,2,708,[2],stimuli/2010011.jpg,,,120351,,prediction_trial,190,image-keyboard-response,,
355,Experiment 5,,,,,,,,,2,,,,,,,,,,,,,0.0-166.0,,, ,309,,stimuli/20100112.jpg,,,120663,,feedback_trial,191,image-keyboard-response,,
355,Experiment 5,False,0,,True,True,000,0,,0,True,True,,True,True,011,,,,,,,0.0-167.0,,,2,381,[0],stimuli/0000011.jpg,,,121047,,prediction_trial,192,image-keyboard-response,,
355,Experiment 5,,,,,,,,,0,,,,,,,,,,,,,0.0-168.0,,, ,525,,stimuli/00000110.jpg,,,121575,,feedback_trial,193,image-keyboard-response,,
355,Experiment 5,True,1,,True,True,000,2,,2,True,True,,True,True,010,,,,,,,0.0-169.0,,,2,564,[2],stimuli/2000010.jpg,,,122143,,prediction_trial,194,image-keyboard-response,,
355,Experiment 5,,,,,,,,,2,,,,,,,,,,,,,0.0-170.0,,, ,157,,stimuli/20000102.jpg,,,122303,,feedback_trial,195,image-keyboard-response,,
355,Experiment 5,True,1,,False,False,110,0,,0,False,False,,True,True,001,,,,,,,0.0-171.0,,,0,428,[0],stimuli/0110001.jpg,,,122735,,prediction_trial,196,image-keyboard-response,,
355,Experiment 5,,,,,,,,,0,,,,,,,,,,,,,0.0-172.0,,, ,140,,stimuli/01100010.jpg,,,122879,,feedback_trial,197,image-keyboard-response,,
355,Experiment 5,True,1,,True,True,000,0,,0,True,True,,True,True,010,,,,,,,0.0-173.0,,,0,557,[0],stimuli/0000010.jpg,,,123440,,prediction_trial,198,image-keyboard-response,,
355,Experiment 5,,,,,,,,,0,,,,,,,,,,,,,0.0-174.0,,, ,141,,stimuli/00000100.jpg,,,123583,,feedback_trial,199,image-keyboard-response,,
355,Experiment 5,True,1,,True,True,010,0,,0,True,True,,True,True,000,,,,,,,0.0-175.0,,,0,453,[0],stimuli/0010000.jpg,,,124039,,prediction_trial,200,image-keyboard-response,,
355,Experiment 5,,,,,,,,,0,,,,,,,,,,,,,0.0-176.0,,, ,149,,stimuli/00100000.jpg,,,124191,,feedback_trial,201,image-keyboard-response,,
355,Experiment 5,True,1,,False,False,110,1,,1,False,False,,True,True,101,,,,,,,0.0-177.0,,,1,701,[1],stimuli/1110101.jpg,,,124895,,prediction_trial,202,image-keyboard-response,,
355,Experiment 5,,,,,,,,,1,,,,,,,,,,,,,0.0-178.0,,, ,197,,stimuli/11101011.jpg,,,125095,,feedback_trial,203,image-keyboard-response,,
355,Experiment 5,False,0,,False,False,110,0,,0,False,False,,False,False,111,,,,,,,0.0-179.0,,,1,724,[0],stimuli/0110111.jpg,,,125823,,prediction_trial,204,image-keyboard-response,,
355,Experiment 5,,,,,,,,,0,,,,,,,,,,,,,0.0-180.0,,, ,453,,stimuli/01101110.jpg,,,126279,,feedback_trial,205,image-keyboard-response,,
355,Experiment 5,True,1,,False,False,111,1,,1,False,False,,True,True,100,,,,,,,0.0-181.0,,,1,469,[1],stimuli/1111100.jpg,,,126751,,prediction_trial,206,image-keyboard-response,,
355,Experiment 5,,,,,,,,,1,,,,,,,,,,,,,0.0-182.0,,, ,128,,stimuli/11111001.jpg,,,126887,,feedback_trial,207,image-keyboard-response,,
355,Experiment 5,True,1,,True,True,001,1,,1,True,True,,True,True,000,,,,,,,0.0-183.0,,,1,428,[1],stimuli/1001000.jpg,,,127319,,prediction_trial,208,image-keyboard-response,,
355,Experiment 5,,,,,,,,,1,,,,,,,,,,,,,0.0-184.0,,, ,165,,stimuli/10010001.jpg,,,127487,,feedback_trial,209,image-keyboard-response,,
355,Experiment 5,False,0,,False,True,010,1,,1,False,False,,False,False,110,,,,,,,0.0-185.0,,,0,532,[1],stimuli/1010110.jpg,,,128023,,prediction_trial,210,image-keyboard-response,,
355,Experiment 5,,,,,,,,,1,,,,,,,,,,,,,0.0-186.0,,, ,381,,stimuli/10101101.jpg,,,128407,,feedback_trial,211,image-keyboard-response,,
355,Experiment 5,True,1,,False,False,111,1,,1,False,False,,False,True,010,,,,,,,0.0-187.0,,,1,452,[1],stimuli/1111010.jpg,,,128863,,prediction_trial,212,image-keyboard-response,,
355,Experiment 5,,,,,,,,,1,,,,,,,,,,,,,0.0-188.0,,, ,325,,stimuli/11110101.jpg,,,129191,,feedback_trial,213,image-keyboard-response,,
355,Experiment 5,True,1,,True,True,100,1,,1,True,True,,True,True,000,,,,,,,0.0-189.0,,,1,381,[1],stimuli/1100000.jpg,,,129575,,prediction_trial,214,image-keyboard-response,,
355,Experiment 5,,,,,,,,,1,,,,,,,,,,,,,0.0-190.0,,, ,204,,stimuli/11000001.jpg,,,129783,,feedback_trial,215,image-keyboard-response,,
355,Experiment 5,True,1,,True,True,100,1,,1,False,True,,False,True,010,,,,,,,0.0-191.0,,,1,597,[1],stimuli/1100010.jpg,,,130383,,prediction_trial,216,image-keyboard-response,,
355,Experiment 5,,,,,,,,,1,,,,,,,,,,,,,0.0-192.0,,, ,165,,stimuli/11000101.jpg,,,130551,,feedback_trial,217,image-keyboard-response,,
355,Experiment 5,False,0,,False,False,101,0,,0,False,False,,False,False,111,,,,,,,0.0-193.0,,,2,797,[0],stimuli/0101111.jpg,,,131352,,prediction_trial,218,image-keyboard-response,,
355,Experiment 5,,,,,,,,,0,,,,,,,,,,,,,0.0-194.0,,, ,469,,stimuli/01011110.jpg,,,131823,,feedback_trial,219,image-keyboard-response,,
355,Experiment 5,False,0,,False,True,010,1,,1,False,False,,False,False,011,,,,,,,0.0-195.0,,,2,492,[1],stimuli/1010011.jpg,,,132319,,prediction_trial,220,image-keyboard-response,,
355,Experiment 5,,,,,,,,,1,,,,,,,,,,,,,0.0-196.0,,, ,397,,stimuli/10100111.jpg,,,132719,,feedback_trial,221,image-keyboard-response,,
355,Experiment 5,True,1,,False,True,100,0,,0,False,True,,True,True,010,,,,,,,0.0-197.0,,,0,821,[0],stimuli/0100010.jpg,,,133543,,prediction_trial,222,image-keyboard-response,,
355,Experiment 5,,,,,,,,,0,,,,,,,,,,,,,0.0-198.0,,, ,205,,stimuli/01000100.jpg,,,133751,,feedback_trial,223,image-keyboard-response,,
355,Experiment 5,True,1,,False,False,011,2,,2,False,False,,False,False,101,,,,,,,0.0-199.0,,,2,557,[2],stimuli/2011101.jpg,,,134311,,prediction_trial,224,image-keyboard-response,,
355,Experiment 5,,,,,,,,,2,,,,,,,,,,,,,0.0-200.0,,, ,365,,stimuli/20111012.jpg,,,134679,,feedback_trial,225,image-keyboard-response,,
355,Experiment 5,True,1,,False,False,101,0,,0,False,False,,False,True,100,,,,,,,0.0-201.0,,,0,653,[0],stimuli/0101100.jpg,,,135335,,prediction_trial,226,image-keyboard-response,,
355,Experiment 5,,,,,,,,,0,,,,,,,,,,,,,0.0-202.0,,, ,277,,stimuli/01011000.jpg,,,135615,,feedback_trial,227,image-keyboard-response,,
355,Experiment 5,False,0,,False,False,111,2,,2,False,False,,False,False,111,,,,,,,0.0-203.0,,,0,926,[2],stimuli/2111111.jpg,,,136545,,prediction_trial,228,image-keyboard-response,,
355,Experiment 5,,,,,,,,,2,,,,,,,,,,,,,0.0-204.0,,, ,427,,stimuli/21111112.jpg,,,136975,,feedback_trial,229,image-keyboard-response,,
355,Experiment 5,True,1,,False,True,010,1,,1,False,True,,True,True,000,,,,,,,0.0-205.0,,,1,477,[1],stimuli/1010000.jpg,,,137456,,prediction_trial,230,image-keyboard-response,,
355,Experiment 5,,,,,,,,,1,,,,,,,,,,,,,0.0-206.0,,, ,180,,stimuli/10100001.jpg,,,137647,,feedback_trial,231,image-keyboard-response,,
