workerid,proliferate.condition,accuracy,accuracy_bool,alter_ball_visible,alter_can_infer,alter_occluders,ball_pos,character_choice,collective_ball_visible,collective_can_infer,ego_ball_visible,ego_can_infer,ego_occluders,internal_node_id,response,rt,search_locations,stimulus,time_elapsed,trial,trial_index,trial_type,error
13,Pilot (test data collection),False,0,False,False,111,2,1,False,False,True,True,010,0.0-5.0,2,21127,"[0, 2, 1]",stimuli/2111010.jpg,500061,prediction_trial,36,image-keyboard-response,
13,Pilot (test data collection),False,0,False,False,111,2,0,False,False,False,False,101,0.0-7.0,1,4743,"[0, 2, 1]",stimuli/2111101.jpg,506589,prediction_trial,38,image-keyboard-response,
13,Pilot (test data collection),True,1,True,True,010,0,0,False,True,False,True,100,0.0-9.0,0,2432,[0],stimuli/0010100.jpg,510349,prediction_trial,40,image-keyboard-response,
13,Pilot (test data collection),False,0,False,False,011,1,1,False,False,True,True,000,0.0-11.0,2,4359,"[2, 1]",stimuli/1011000.jpg,516509,prediction_trial,42,image-keyboard-response,
13,Pilot (test data collection),True,1,True,True,100,2,2,False,True,False,True,001,0.0-13.0,2,4808,[2],stimuli/2100001.jpg,522461,prediction_trial,44,image-keyboard-response,
13,Pilot (test data collection),False,0,False,False,101,0,0,False,False,False,False,111,0.0-15.0,1,5223,"[0, 2]",stimuli/0101111.jpg,529309,prediction_trial,46,image-keyboard-response,
13,Pilot (test data collection),True,1,False,False,111,1,2,False,False,True,True,100,0.0-17.0,2,3440,"[1, 2, 0]",stimuli/1111100.jpg,533725,prediction_trial,48,image-keyboard-response,
13,Pilot (test data collection),True,1,False,False,111,1,0,False,False,False,True,010,0.0-19.0,0,2999,"[1, 2, 0]",stimuli/1111010.jpg,537821,prediction_trial,50,image-keyboard-response,
13,Pilot (test data collection),False,0,False,False,111,2,0,False,False,False,True,001,0.0-21.0,2,3015,"[1, 2, 0]",stimuli/2111001.jpg,542725,prediction_trial,52,image-keyboard-response,
13,Pilot (test data collection),False,0,False,False,111,1,0,False,False,False,True,010,0.0-23.0,1,2791,"[1, 2, 0]",stimuli/1111010.jpg,546549,prediction_trial,54,image-keyboard-response,
13,Pilot (test data collection),False,0,False,True,010,1,1,False,False,False,False,111,0.0-25.0,2,4975,[1],stimuli/1010111.jpg,552701,prediction_trial,56,image-keyboard-response,
13,Pilot (test data collection),False,0,False,False,111,0,1,False,False,True,True,010,0.0-27.0,0,1839,"[0, 2, 1]",stimuli/0111010.jpg,555853,prediction_trial,58,image-keyboard-response,
13,Pilot (test data collection),True,1,False,False,111,1,1,False,False,True,True,101,0.0-29.0,1,2223,"[2, 1, 0]",stimuli/1111101.jpg,559117,prediction_trial,60,image-keyboard-response,
13,Pilot (test data collection),False,0,True,True,110,2,2,False,False,False,False,111,0.0-31.0,0,4416,[2],stimuli/2110111.jpg,564628,prediction_trial,62,image-keyboard-response,
13,Pilot (test data collection),True,1,False,True,100,0,0,False,False,False,False,111,0.0-33.0,0,3615,[0],stimuli/0100111.jpg,569516,prediction_trial,64,image-keyboard-response,
13,Pilot (test data collection),True,1,True,True,000,2,2,True,True,True,True,110,0.0-35.0,2,2247,[2],stimuli/2000110.jpg,573172,prediction_trial,66,image-keyboard-response,
13,Pilot (test data collection),True,1,False,False,111,2,1,False,False,False,False,011,0.0-37.0,1,3767,"[0, 1, 2]",stimuli/2111011.jpg,577852,prediction_trial,68,image-keyboard-response,
13,Pilot (test data collection),False,0,False,False,111,1,1,False,False,False,False,111,0.0-39.0,2,2871,"[1, 2, 0]",stimuli/1111111.jpg,582012,prediction_trial,70,image-keyboard-response,
13,Pilot (test data collection),True,1,False,False,111,0,0,False,False,True,True,000,0.0-41.0,0,2845,"[2, 0, 1]",stimuli/0111000.jpg,588209,prediction_trial,72,image-keyboard-response,
13,Pilot (test data collection),False,0,False,False,111,1,2,False,False,True,True,001,0.0-43.0,1,2527,"[1, 0, 2]",stimuli/1111001.jpg,591812,prediction_trial,74,image-keyboard-response,
13,Pilot (test data collection),True,1,True,True,110,2,2,True,True,True,True,010,0.0-45.0,2,2119,[2],stimuli/2110010.jpg,594707,prediction_trial,76,image-keyboard-response,
13,Pilot (test data collection),False,0,False,False,011,1,1,False,False,False,False,110,0.0-47.0,0,2015,"[1, 2]",stimuli/1011110.jpg,597524,prediction_trial,78,image-keyboard-response,
13,Pilot (test data collection),False,0,False,False,111,0,0,False,False,False,False,110,0.0-49.0,1,2720,"[0, 2, 1]",stimuli/0111110.jpg,601012,prediction_trial,80,image-keyboard-response,
13,Pilot (test data collection),False,0,False,False,111,2,0,False,False,True,True,010,0.0-51.0,2,1415,"[0, 2, 1]",stimuli/2111010.jpg,603099,prediction_trial,82,image-keyboard-response,
13,Pilot (test data collection),False,0,False,False,111,1,0,False,False,False,False,011,0.0-53.0,1,2015,"[2, 0, 1]",stimuli/1111011.jpg,605771,prediction_trial,84,image-keyboard-response,
13,Pilot (test data collection),False,0,False,False,111,0,2,False,False,True,True,010,0.0-55.0,0,1688,"[0, 2, 1]",stimuli/0111010.jpg,608604,prediction_trial,86,image-keyboard-response,
13,Pilot (test data collection),True,1,False,True,100,0,0,False,True,False,True,100,0.0-57.0,0,2727,[0],stimuli/0100100.jpg,612083,prediction_trial,88,image-keyboard-response,
13,Pilot (test data collection),True,1,False,True,010,1,1,False,True,True,True,001,0.0-59.0,1,2455,[1],stimuli/1010001.jpg,615315,prediction_trial,90,image-keyboard-response,
13,Pilot (test data collection),False,0,True,True,011,0,0,False,False,False,False,110,0.0-61.0,1,3423,[0],stimuli/0011110.jpg,619507,prediction_trial,92,image-keyboard-response,
13,Pilot (test data collection),False,0,False,False,111,2,1,False,False,True,True,110,0.0-63.0,2,2096,"[1, 0, 2]",stimuli/2111110.jpg,622533,prediction_trial,94,image-keyboard-response,
13,Pilot (test data collection),False,0,False,False,111,0,0,False,False,True,True,000,0.0-65.0,1,2143,"[2, 0, 1]",stimuli/0111000.jpg,625349,prediction_trial,96,image-keyboard-response,
13,Pilot (test data collection),True,1,False,False,111,2,1,False,False,False,False,101,0.0-67.0,1,3184,"[0, 2, 1]",stimuli/2111101.jpg,629654,prediction_trial,98,image-keyboard-response,
13,Pilot (test data collection),False,0,True,True,001,0,0,False,False,False,False,101,0.0-69.0,2,3551,[0],stimuli/0001101.jpg,634021,prediction_trial,100,image-keyboard-response,
13,Pilot (test data collection),True,1,True,True,000,0,0,False,True,False,True,100,0.0-71.0,0,4631,[0],stimuli/0000100.jpg,639501,prediction_trial,102,image-keyboard-response,
13,Pilot (test data collection),False,0,False,True,100,0,0,False,False,False,False,101,0.0-73.0,2,6815,[0],stimuli/0100101.jpg,647021,prediction_trial,104,image-keyboard-response,
13,Pilot (test data collection),True,1,False,True,100,0,0,False,True,True,True,011,0.0-75.0,0,2872,[0],stimuli/0100011.jpg,650638,prediction_trial,106,image-keyboard-response,
13,Pilot (test data collection),True,1,True,True,011,0,0,True,True,True,True,011,0.0-77.0,0,1927,[0],stimuli/0011011.jpg,653493,prediction_trial,108,image-keyboard-response,
13,Pilot (test data collection),False,0,False,False,111,2,1,False,False,False,False,011,0.0-79.0,2,2127,"[0, 1, 2]",stimuli/2111011.jpg,656341,prediction_trial,110,image-keyboard-response,
13,Pilot (test data collection),False,0,False,False,111,2,1,False,False,True,True,100,0.0-81.0,2,2584,"[1, 0, 2]",stimuli/2111100.jpg,659629,prediction_trial,112,image-keyboard-response,
13,Pilot (test data collection),False,0,False,False,111,0,0,False,False,False,False,101,0.0-83.0,1,3487,"[0, 2, 1]",stimuli/0111101.jpg,663885,prediction_trial,114,image-keyboard-response,
13,Pilot (test data collection),True,1,False,False,111,1,2,False,False,False,False,110,0.0-85.0,2,2823,"[0, 1, 2]",stimuli/1111110.jpg,667469,prediction_trial,116,image-keyboard-response,
13,Pilot (test data collection),True,1,False,False,111,0,0,False,False,True,True,011,0.0-87.0,0,1807,"[2, 0, 1]",stimuli/0111011.jpg,670037,prediction_trial,118,image-keyboard-response,
13,Pilot (test data collection),False,0,False,False,111,0,1,False,False,True,True,001,0.0-89.0,0,2007,"[1, 2, 0]",stimuli/0111001.jpg,672725,prediction_trial,120,image-keyboard-response,
13,Pilot (test data collection),True,1,True,True,000,1,1,False,True,False,True,010,0.0-91.0,1,2312,[1],stimuli/1000010.jpg,675677,prediction_trial,122,image-keyboard-response,
13,Pilot (test data collection),True,1,True,True,000,2,2,True,True,True,True,000,0.0-93.0,2,2488,[2],stimuli/2000000.jpg,678917,prediction_trial,124,image-keyboard-response,
13,Pilot (test data collection),False,0,True,True,010,2,2,False,False,False,False,101,0.0-95.0,1,3903,[2],stimuli/2010101.jpg,683521,prediction_trial,126,image-keyboard-response,
13,Pilot (test data collection),False,0,False,False,111,0,1,False,False,False,False,110,0.0-97.0,0,5408,"[0, 2, 1]",stimuli/0111110.jpg,689673,prediction_trial,128,image-keyboard-response,
13,Pilot (test data collection),False,0,False,False,111,0,2,False,False,True,True,001,0.0-99.0,0,1871,"[1, 2, 0]",stimuli/0111001.jpg,692216,prediction_trial,130,image-keyboard-response,
13,Pilot (test data collection),False,0,False,False,111,1,1,False,False,False,False,110,0.0-101.0,2,1583,"[0, 1, 2]",stimuli/1111110.jpg,694681,prediction_trial,132,image-keyboard-response,
13,Pilot (test data collection),True,1,True,True,000,2,2,False,False,False,False,101,0.0-103.0,2,3071,[2],stimuli/2000101.jpg,698689,prediction_trial,134,image-keyboard-response,
13,Pilot (test data collection),True,1,True,True,001,1,1,True,True,True,True,000,0.0-105.0,1,1512,[1],stimuli/1001000.jpg,701001,prediction_trial,136,image-keyboard-response,
13,Pilot (test data collection),False,0,False,False,111,2,0,False,False,True,True,110,0.0-107.0,2,1983,"[1, 0, 2]",stimuli/2111110.jpg,703633,prediction_trial,138,image-keyboard-response,
13,Pilot (test data collection),False,0,False,False,111,0,1,False,False,True,True,001,0.0-109.0,0,1632,"[1, 2, 0]",stimuli/0111001.jpg,705937,prediction_trial,140,image-keyboard-response,
13,Pilot (test data collection),False,0,False,False,111,2,2,False,False,True,True,110,0.0-111.0,1,1335,"[1, 0, 2]",stimuli/2111110.jpg,707889,prediction_trial,142,image-keyboard-response,
13,Pilot (test data collection),False,0,False,False,111,0,2,False,False,False,False,111,0.0-113.0,1,2039,"[0, 2, 1]",stimuli/0111111.jpg,710576,prediction_trial,144,image-keyboard-response,
13,Pilot (test data collection),True,1,True,True,001,1,1,False,True,False,True,010,0.0-115.0,1,2263,[1],stimuli/1001010.jpg,713417,prediction_trial,146,image-keyboard-response,
13,Pilot (test data collection),False,0,False,False,111,0,1,False,False,True,True,000,0.0-117.0,0,1815,"[2, 0, 1]",stimuli/0111000.jpg,715889,prediction_trial,148,image-keyboard-response,
13,Pilot (test data collection),False,0,True,True,010,0,0,False,False,False,False,101,0.0-119.0,1,4848,[0],stimuli/0010101.jpg,721513,prediction_trial,150,image-keyboard-response,
13,Pilot (test data collection),True,1,False,False,111,1,1,False,False,True,True,101,0.0-121.0,1,1663,"[2, 1, 0]",stimuli/1111101.jpg,723841,prediction_trial,152,image-keyboard-response,
13,Pilot (test data collection),True,1,False,False,101,2,2,False,False,False,False,101,0.0-123.0,2,3264,"[2, 0]",stimuli/2101101.jpg,727745,prediction_trial,154,image-keyboard-response,
13,Pilot (test data collection),False,0,True,True,000,2,2,False,False,False,False,111,0.0-125.0,0,2327,[2],stimuli/2000111.jpg,730880,prediction_trial,156,image-keyboard-response,
13,Pilot (test data collection),True,1,False,False,111,0,0,False,False,False,True,100,0.0-127.0,0,3847,"[2, 0, 1]",stimuli/0111100.jpg,735369,prediction_trial,158,image-keyboard-response,
13,Pilot (test data collection),True,1,True,True,110,2,2,True,True,True,True,100,0.0-129.0,2,1960,[2],stimuli/2110100.jpg,738217,prediction_trial,160,image-keyboard-response,
13,Pilot (test data collection),False,0,True,True,110,2,2,False,False,False,False,101,0.0-131.0,1,3423,[2],stimuli/2110101.jpg,742329,prediction_trial,162,image-keyboard-response,
13,Pilot (test data collection),True,1,False,False,011,1,1,False,False,False,True,010,0.0-133.0,1,4759,"[1, 2]",stimuli/1011010.jpg,747764,prediction_trial,164,image-keyboard-response,
13,Pilot (test data collection),True,1,False,False,110,1,0,False,False,False,True,010,0.0-135.0,0,2999,"[0, 1]",stimuli/1110010.jpg,751428,prediction_trial,166,image-keyboard-response,
13,Pilot (test data collection),False,0,False,False,111,1,2,False,False,True,True,101,0.0-137.0,1,3032,"[2, 1, 0]",stimuli/1111101.jpg,755140,prediction_trial,168,image-keyboard-response,
13,Pilot (test data collection),True,1,False,False,111,0,0,False,False,False,False,111,0.0-139.0,0,2127,"[0, 2, 1]",stimuli/0111111.jpg,758644,prediction_trial,170,image-keyboard-response,
13,Pilot (test data collection),False,0,True,True,000,1,1,False,False,False,False,111,0.0-141.0,2,2583,[1],stimuli/1000111.jpg,761868,prediction_trial,172,image-keyboard-response,
13,Pilot (test data collection),True,1,False,False,111,2,2,False,False,False,True,001,0.0-143.0,2,2736,"[1, 2, 0]",stimuli/2111001.jpg,765293,prediction_trial,174,image-keyboard-response,
13,Pilot (test data collection),False,0,False,False,101,0,2,False,False,True,True,010,0.0-145.0,0,3383,"[0, 2]",stimuli/0101010.jpg,769388,prediction_trial,176,image-keyboard-response,
13,Pilot (test data collection),False,0,True,True,100,2,2,False,False,False,False,111,0.0-147.0,1,4216,[2],stimuli/2100111.jpg,774268,prediction_trial,178,image-keyboard-response,
13,Pilot (test data collection),True,1,True,True,110,2,2,True,True,True,True,000,0.0-149.0,2,1592,[2],stimuli/2110000.jpg,776637,prediction_trial,180,image-keyboard-response,
13,Pilot (test data collection),True,1,True,True,001,0,0,True,True,True,True,001,0.0-151.0,0,1487,[0],stimuli/0001001.jpg,778724,prediction_trial,182,image-keyboard-response,
13,Pilot (test data collection),False,0,False,False,111,2,0,False,False,False,False,101,0.0-153.0,1,2439,"[0, 2, 1]",stimuli/2111101.jpg,781692,prediction_trial,184,image-keyboard-response,
13,Pilot (test data collection),False,0,False,False,111,2,0,False,False,False,False,111,0.0-155.0,1,1823,"[2, 1, 0]",stimuli/2111111.jpg,784236,prediction_trial,186,image-keyboard-response,
13,Pilot (test data collection),True,1,False,False,111,1,1,False,False,False,False,110,0.0-157.0,1,1856,"[0, 1, 2]",stimuli/1111110.jpg,786709,prediction_trial,188,image-keyboard-response,
13,Pilot (test data collection),False,0,False,False,111,2,2,False,False,False,False,111,0.0-159.0,0,1807,"[2, 1, 0]",stimuli/2111111.jpg,789188,prediction_trial,190,image-keyboard-response,
13,Pilot (test data collection),False,0,False,False,111,2,0,False,False,True,True,100,0.0-161.0,2,1999,"[1, 0, 2]",stimuli/2111100.jpg,791788,prediction_trial,192,image-keyboard-response,
13,Pilot (test data collection),True,1,True,True,101,1,1,True,True,True,True,101,0.0-163.0,1,1559,[1],stimuli/1101101.jpg,794068,prediction_trial,194,image-keyboard-response,
13,Pilot (test data collection),True,1,True,True,010,2,2,False,True,False,True,001,0.0-165.0,2,2415,[2],stimuli/2010001.jpg,797060,prediction_trial,196,image-keyboard-response,
13,Pilot (test data collection),True,1,True,True,001,1,1,False,False,False,False,110,0.0-167.0,1,3247,[1],stimuli/1001110.jpg,800908,prediction_trial,198,image-keyboard-response,
13,Pilot (test data collection),False,0,True,True,100,1,1,False,False,False,False,110,0.0-169.0,0,2871,[1],stimuli/1100110.jpg,804364,prediction_trial,200,image-keyboard-response,
13,Pilot (test data collection),True,1,True,True,011,0,0,False,True,False,True,100,0.0-171.0,0,1928,[0],stimuli/0011100.jpg,806892,prediction_trial,202,image-keyboard-response,
13,Pilot (test data collection),True,1,True,True,110,2,2,False,True,False,True,001,0.0-173.0,2,1831,[2],stimuli/2110001.jpg,809246,prediction_trial,204,image-keyboard-response,
13,Pilot (test data collection),True,1,True,True,010,0,0,True,True,True,True,011,0.0-175.0,0,1423,[0],stimuli/0010011.jpg,811286,prediction_trial,206,image-keyboard-response,
13,Pilot (test data collection),False,0,False,False,111,1,2,False,False,True,True,100,0.0-177.0,1,1663,"[1, 2, 0]",stimuli/1111100.jpg,813565,prediction_trial,208,image-keyboard-response,
13,Pilot (test data collection),False,0,False,False,111,0,1,False,False,False,False,110,0.0-179.0,2,5823,"[0, 2, 1]",stimuli/0111110.jpg,819958,prediction_trial,210,image-keyboard-response,
13,Pilot (test data collection),True,1,False,False,111,1,1,False,False,True,True,000,0.0-181.0,1,2703,"[1, 2, 0]",stimuli/1111000.jpg,823558,prediction_trial,212,image-keyboard-response,
13,Pilot (test data collection),False,0,False,False,111,2,0,False,False,True,True,000,0.0-183.0,2,1135,"[0, 1, 2]",stimuli/2111000.jpg,826078,prediction_trial,214,image-keyboard-response,
13,Pilot (test data collection),False,0,False,False,111,2,0,False,False,True,True,010,0.0-185.0,2,1615,"[0, 2, 1]",stimuli/2111010.jpg,828358,prediction_trial,216,image-keyboard-response,
13,Pilot (test data collection),False,0,False,False,111,2,0,False,False,False,True,001,0.0-187.0,2,1343,"[1, 2, 0]",stimuli/2111001.jpg,830253,prediction_trial,218,image-keyboard-response,
13,Pilot (test data collection),False,0,False,False,111,2,0,False,False,True,True,000,0.0-189.0,2,2576,"[0, 1, 2]",stimuli/2111000.jpg,833278,prediction_trial,220,image-keyboard-response,
13,Pilot (test data collection),False,0,False,False,111,0,0,False,False,False,False,101,0.0-191.0,1,2239,"[0, 2, 1]",stimuli/0111101.jpg,836214,prediction_trial,222,image-keyboard-response,
13,Pilot (test data collection),True,1,True,True,000,1,1,True,True,True,True,000,0.0-193.0,1,1247,[1],stimuli/1000000.jpg,838270,prediction_trial,224,image-keyboard-response,
13,Pilot (test data collection),True,1,False,True,100,0,0,False,False,False,False,110,0.0-195.0,0,3248,[0],stimuli/0100110.jpg,842054,prediction_trial,226,image-keyboard-response,
13,Pilot (test data collection),True,1,True,True,000,0,0,True,True,True,True,010,0.0-197.0,0,1591,[0],stimuli/0000010.jpg,844350,prediction_trial,228,image-keyboard-response,
13,Pilot (test data collection),False,0,False,False,111,2,0,False,False,True,True,000,0.0-199.0,2,1591,"[0, 1, 2]",stimuli/2111000.jpg,846606,prediction_trial,230,image-keyboard-response,
13,Pilot (test data collection),True,1,True,True,110,2,2,True,True,True,True,110,0.0-201.0,2,2007,[2],stimuli/2110110.jpg,849590,prediction_trial,232,image-keyboard-response,
13,Pilot (test data collection),True,1,False,False,111,0,1,False,False,False,False,111,0.0-203.0,1,1624,"[0, 2, 1]",stimuli/0111111.jpg,852126,prediction_trial,234,image-keyboard-response,
13,Pilot (test data collection),True,1,False,False,101,2,2,False,False,True,True,100,0.0-205.0,2,2055,"[2, 0]",stimuli/2101100.jpg,855614,prediction_trial,236,image-keyboard-response,
13,Pilot (test data collection),True,1,False,True,010,1,1,False,True,False,True,010,0.0-207.0,1,1783,[1],stimuli/1010010.jpg,858782,prediction_trial,238,image-keyboard-response,
13,Pilot (test data collection),False,0,False,False,111,1,2,False,False,True,True,100,0.0-209.0,1,1736,"[1, 2, 0]",stimuli/1111100.jpg,861518,prediction_trial,240,image-keyboard-response,
13,Pilot (test data collection),True,1,True,True,000,0,0,True,True,True,True,001,0.0-211.0,0,1327,[0],stimuli/0000001.jpg,863557,prediction_trial,242,image-keyboard-response,
13,Pilot (test data collection),False,0,False,False,111,2,2,False,False,False,False,111,0.0-213.0,1,1279,"[2, 1, 0]",stimuli/2111111.jpg,865502,prediction_trial,244,image-keyboard-response,
13,Pilot (test data collection),False,0,False,False,111,2,1,False,False,False,False,011,0.0-215.0,0,2519,"[0, 1, 2]",stimuli/2111011.jpg,868766,prediction_trial,246,image-keyboard-response,
13,Pilot (test data collection),True,1,False,True,001,2,2,False,True,True,True,100,0.0-217.0,2,1727,[2],stimuli/2001100.jpg,871495,prediction_trial,248,image-keyboard-response,
13,Pilot (test data collection),True,1,True,True,101,1,1,False,True,False,True,010,0.0-219.0,1,3383,[1],stimuli/1101010.jpg,875783,prediction_trial,250,image-keyboard-response,
13,Pilot (test data collection),True,1,True,True,100,1,1,True,True,True,True,100,0.0-221.0,1,1423,[1],stimuli/1100100.jpg,878151,prediction_trial,252,image-keyboard-response,
13,Pilot (test data collection),True,1,True,True,000,1,1,True,True,True,True,101,0.0-223.0,1,1599,[1],stimuli/1000101.jpg,880423,prediction_trial,254,image-keyboard-response,
13,Pilot (test data collection),False,0,False,False,111,0,1,False,False,False,False,101,0.0-225.0,2,2247,"[0, 2, 1]",stimuli/0111101.jpg,883263,prediction_trial,256,image-keyboard-response,
13,Pilot (test data collection),True,1,False,True,001,2,2,False,True,True,True,110,0.0-227.0,2,1351,[2],stimuli/2001110.jpg,886807,prediction_trial,258,image-keyboard-response,
13,Pilot (test data collection),True,1,False,False,111,1,1,False,False,True,True,000,0.0-229.0,1,1039,"[1, 2, 0]",stimuli/1111000.jpg,888759,prediction_trial,260,image-keyboard-response,
13,Pilot (test data collection),True,1,False,False,111,0,0,False,False,True,True,011,0.0-231.0,0,1175,"[2, 0, 1]",stimuli/0111011.jpg,891079,prediction_trial,262,image-keyboard-response,
13,Pilot (test data collection),False,0,True,True,011,0,0,False,False,False,False,111,0.0-233.0,1,2168,[0],stimuli/0011111.jpg,894648,prediction_trial,264,image-keyboard-response,
13,Pilot (test data collection),True,1,False,True,100,0,0,False,True,True,True,010,0.0-235.0,0,3559,[0],stimuli/0100010.jpg,900311,prediction_trial,266,image-keyboard-response,
13,Pilot (test data collection),True,1,True,True,010,0,0,True,True,True,True,000,0.0-237.0,0,1903,[0],stimuli/0010000.jpg,903119,prediction_trial,268,image-keyboard-response,
13,Pilot (test data collection),True,1,False,False,111,1,1,False,False,False,False,111,0.0-239.0,1,1368,"[1, 2, 0]",stimuli/1111111.jpg,905136,prediction_trial,270,image-keyboard-response,
13,Pilot (test data collection),False,0,False,False,111,0,1,False,False,False,True,100,0.0-241.0,0,1831,"[2, 0, 1]",stimuli/0111100.jpg,907799,prediction_trial,272,image-keyboard-response,
13,Pilot (test data collection),False,0,False,False,111,1,0,False,False,False,True,010,0.0-243.0,1,3279,"[1, 2, 0]",stimuli/1111010.jpg,911783,prediction_trial,274,image-keyboard-response,
13,Pilot (test data collection),True,1,False,False,111,1,1,False,False,False,False,011,0.0-245.0,1,1735,"[2, 0, 1]",stimuli/1111011.jpg,915135,prediction_trial,276,image-keyboard-response,
13,Pilot (test data collection),True,1,False,False,011,2,2,False,False,True,True,000,0.0-247.0,2,1399,"[2, 1]",stimuli/2011000.jpg,917695,prediction_trial,278,image-keyboard-response,
13,Pilot (test data collection),True,1,False,True,001,2,2,False,True,True,True,010,0.0-249.0,2,1919,[2],stimuli/2001010.jpg,920359,prediction_trial,280,image-keyboard-response,
13,Pilot (test data collection),False,0,False,False,011,1,2,False,False,True,True,101,0.0-251.0,1,1383,"[1, 2]",stimuli/1011101.jpg,922535,prediction_trial,282,image-keyboard-response,
13,Pilot (test data collection),False,0,False,False,101,0,2,False,False,True,True,000,0.0-253.0,0,1375,"[2, 0]",stimuli/0101000.jpg,924783,prediction_trial,284,image-keyboard-response,
13,Pilot (test data collection),True,1,False,False,111,1,1,False,False,True,True,000,0.0-255.0,1,1268,"[1, 2, 0]",stimuli/1111000.jpg,927039,prediction_trial,286,image-keyboard-response,
13,Pilot (test data collection),False,0,True,True,000,0,0,False,False,False,False,110,0.0-257.0,1,4703,[0],stimuli/0000110.jpg,932656,prediction_trial,288,image-keyboard-response,
13,Pilot (test data collection),False,0,False,False,111,1,0,False,False,True,True,001,0.0-259.0,1,1527,"[1, 0, 2]",stimuli/1111001.jpg,935712,prediction_trial,290,image-keyboard-response,
13,Pilot (test data collection),False,0,False,False,110,0,1,False,False,True,True,011,0.0-261.0,0,1943,"[1, 0]",stimuli/0110011.jpg,938904,prediction_trial,292,image-keyboard-response,
13,Pilot (test data collection),False,0,False,False,111,0,1,False,False,True,True,011,0.0-263.0,0,2023,"[2, 0, 1]",stimuli/0111011.jpg,941912,prediction_trial,294,image-keyboard-response,
13,Pilot (test data collection),False,0,True,True,011,0,0,False,False,False,False,101,0.0-265.0,2,2887,[0],stimuli/0011101.jpg,945624,prediction_trial,296,image-keyboard-response,
13,Pilot (test data collection),False,0,False,False,101,2,0,False,False,False,False,011,0.0-267.0,1,5136,"[2, 0]",stimuli/2101011.jpg,951608,prediction_trial,298,image-keyboard-response,
13,Pilot (test data collection),True,1,True,True,100,1,1,False,True,False,True,010,0.0-269.0,1,2256,[1],stimuli/1100010.jpg,954544,prediction_trial,300,image-keyboard-response,
13,Pilot (test data collection),False,0,False,False,111,1,0,False,False,False,False,011,0.0-271.0,2,2191,"[2, 0, 1]",stimuli/1111011.jpg,957320,prediction_trial,302,image-keyboard-response,
13,Pilot (test data collection),False,0,False,False,111,0,1,False,False,True,True,010,0.0-273.0,0,1112,"[0, 2, 1]",stimuli/0111010.jpg,958944,prediction_trial,304,image-keyboard-response,
13,Pilot (test data collection),False,0,False,False,110,1,0,False,False,True,True,000,0.0-275.0,1,2303,"[0, 1]",stimuli/1110000.jpg,962127,prediction_trial,306,image-keyboard-response,
13,Pilot (test data collection),False,0,True,True,001,0,0,False,False,False,False,111,0.0-277.0,1,2959,[0],stimuli/0001111.jpg,965719,prediction_trial,308,image-keyboard-response,
13,Pilot (test data collection),False,0,False,False,110,0,0,False,False,False,False,110,0.0-279.0,1,1959,"[1, 0]",stimuli/0110110.jpg,968456,prediction_trial,310,image-keyboard-response,
13,Pilot (test data collection),False,0,False,False,111,1,2,False,False,True,True,001,0.0-281.0,1,1504,"[1, 0, 2]",stimuli/1111001.jpg,970664,prediction_trial,312,image-keyboard-response,
13,Pilot (test data collection),False,0,False,False,111,2,0,False,False,True,True,100,0.0-283.0,2,1840,"[1, 0, 2]",stimuli/2111100.jpg,973192,prediction_trial,314,image-keyboard-response,
13,Pilot (test data collection),True,1,False,False,110,0,1,False,False,False,False,101,0.0-285.0,1,1703,"[1, 0]",stimuli/0110101.jpg,975600,prediction_trial,316,image-keyboard-response,
13,Pilot (test data collection),True,1,True,True,100,1,1,True,True,True,True,001,0.0-287.0,1,2031,[1],stimuli/1100001.jpg,978264,prediction_trial,318,image-keyboard-response,
13,Pilot (test data collection),True,1,False,False,111,0,0,False,False,False,True,100,0.0-289.0,0,1983,"[2, 0, 1]",stimuli/0111100.jpg,980896,prediction_trial,320,image-keyboard-response,
13,Pilot (test data collection),False,0,False,False,111,1,2,False,False,False,False,111,0.0-291.0,1,2903,"[1, 2, 0]",stimuli/1111111.jpg,984552,prediction_trial,322,image-keyboard-response,
14,Pilot (test data collection),True,1,False,True,001,2,2,False,True,True,True,110,0.0-5.0,2,1357,[2],stimuli/2001110.jpg,262115,prediction_trial,36,image-keyboard-response,
14,Pilot (test data collection),True,1,True,True,101,1,1,False,True,False,True,010,0.0-7.0,1,1550,[1],stimuli/1101010.jpg,264443,prediction_trial,38,image-keyboard-response,
14,Pilot (test data collection),False,0,False,False,111,1,2,False,False,False,False,110,0.0-9.0,1,3042,"[2, 0, 1]",stimuli/1111110.jpg,268588,prediction_trial,40,image-keyboard-response,
14,Pilot (test data collection),False,0,False,False,011,2,2,False,False,False,False,111,0.0-11.0,0,1686,"[2, 1]",stimuli/2011111.jpg,270829,prediction_trial,42,image-keyboard-response,
14,Pilot (test data collection),False,0,False,False,111,0,2,False,False,False,False,110,0.0-13.0,1,3229,"[2, 0, 1]",stimuli/0111110.jpg,275324,prediction_trial,44,image-keyboard-response,
14,Pilot (test data collection),False,0,False,False,101,0,2,False,False,False,True,100,0.0-15.0,0,1244,"[0, 2]",stimuli/0101100.jpg,277179,prediction_trial,46,image-keyboard-response,
14,Pilot (test data collection),True,1,False,False,111,1,1,False,False,True,True,001,0.0-17.0,1,1344,"[0, 2, 1]",stimuli/1111001.jpg,280642,prediction_trial,48,image-keyboard-response,
14,Pilot (test data collection),True,1,False,True,010,1,1,False,True,True,True,101,0.0-19.0,1,959,[1],stimuli/1010101.jpg,282334,prediction_trial,50,image-keyboard-response,
14,Pilot (test data collection),False,0,False,False,111,0,1,False,False,False,True,100,0.0-21.0,0,1833,"[0, 2, 1]",stimuli/0111100.jpg,284710,prediction_trial,52,image-keyboard-response,
14,Pilot (test data collection),True,1,False,False,101,0,0,False,False,True,True,010,0.0-23.0,0,1578,"[2, 0]",stimuli/0101010.jpg,287906,prediction_trial,54,image-keyboard-response,
14,Pilot (test data collection),False,0,False,False,111,1,0,False,False,True,True,000,0.0-25.0,1,943,"[2, 0, 1]",stimuli/1111000.jpg,289403,prediction_trial,56,image-keyboard-response,
14,Pilot (test data collection),False,0,False,False,111,0,2,False,False,True,True,001,0.0-27.0,0,973,"[1, 2, 0]",stimuli/0111001.jpg,290837,prediction_trial,58,image-keyboard-response,
14,Pilot (test data collection),True,1,True,True,110,2,2,True,True,True,True,000,0.0-29.0,2,891,[2],stimuli/2110000.jpg,292170,prediction_trial,60,image-keyboard-response,
14,Pilot (test data collection),True,1,True,True,001,1,1,False,True,False,True,010,0.0-31.0,1,1196,[1],stimuli/1001010.jpg,294014,prediction_trial,62,image-keyboard-response,
14,Pilot (test data collection),True,1,True,True,000,2,2,False,False,False,False,011,0.0-33.0,2,1233,[2],stimuli/2000011.jpg,295884,prediction_trial,64,image-keyboard-response,
14,Pilot (test data collection),True,1,True,True,100,1,1,True,True,True,True,000,0.0-35.0,1,923,[1],stimuli/1100000.jpg,297527,prediction_trial,66,image-keyboard-response,
14,Pilot (test data collection),True,1,False,True,010,1,1,False,False,False,False,011,0.0-37.0,1,1541,[1],stimuli/1010011.jpg,299552,prediction_trial,68,image-keyboard-response,
14,Pilot (test data collection),True,1,False,False,111,0,0,False,False,True,True,000,0.0-39.0,0,1538,"[2, 0, 1]",stimuli/0111000.jpg,301671,prediction_trial,70,image-keyboard-response,
14,Pilot (test data collection),False,0,False,False,111,1,0,False,False,True,True,001,0.0-41.0,1,890,"[0, 2, 1]",stimuli/1111001.jpg,303001,prediction_trial,72,image-keyboard-response,
14,Pilot (test data collection),False,0,False,False,111,0,1,False,False,False,True,100,0.0-43.0,0,1958,"[0, 2, 1]",stimuli/0111100.jpg,305370,prediction_trial,74,image-keyboard-response,
14,Pilot (test data collection),True,1,True,True,010,2,2,True,True,True,True,100,0.0-45.0,2,1084,[2],stimuli/2010100.jpg,307504,prediction_trial,76,image-keyboard-response,
14,Pilot (test data collection),True,1,False,False,011,1,1,False,False,False,False,110,0.0-47.0,1,1355,"[2, 1]",stimuli/1011110.jpg,309464,prediction_trial,78,image-keyboard-response,
14,Pilot (test data collection),False,0,False,False,011,1,2,False,False,True,True,101,0.0-49.0,1,1106,"[2, 1]",stimuli/1011101.jpg,311183,prediction_trial,80,image-keyboard-response,
14,Pilot (test data collection),True,1,False,False,111,2,2,False,False,False,True,001,0.0-51.0,2,820,"[0, 1, 2]",stimuli/2111001.jpg,313248,prediction_trial,82,image-keyboard-response,
14,Pilot (test data collection),True,1,True,True,101,1,1,True,True,True,True,101,0.0-53.0,1,1487,[1],stimuli/1101101.jpg,315926,prediction_trial,84,image-keyboard-response,
14,Pilot (test data collection),False,0,False,False,111,1,1,False,False,False,False,011,0.0-55.0,2,2350,"[2, 1, 0]",stimuli/1111011.jpg,318883,prediction_trial,86,image-keyboard-response,
14,Pilot (test data collection),True,1,False,False,111,2,2,False,False,True,True,110,0.0-57.0,2,869,"[1, 0, 2]",stimuli/2111110.jpg,320307,prediction_trial,88,image-keyboard-response,
14,Pilot (test data collection),True,1,False,False,111,1,1,False,False,True,True,101,0.0-59.0,1,1007,"[0, 1, 2]",stimuli/1111101.jpg,321887,prediction_trial,90,image-keyboard-response,
14,Pilot (test data collection),False,0,False,False,110,0,1,False,False,True,True,011,0.0-61.0,0,1023,"[1, 0]",stimuli/0110011.jpg,323549,prediction_trial,92,image-keyboard-response,
14,Pilot (test data collection),True,1,True,True,101,1,1,True,True,True,True,100,0.0-63.0,1,1131,[1],stimuli/1101100.jpg,325920,prediction_trial,94,image-keyboard-response,
14,Pilot (test data collection),False,0,False,False,111,2,0,False,False,False,False,101,0.0-65.0,2,1543,"[2, 1, 0]",stimuli/2111101.jpg,328109,prediction_trial,96,image-keyboard-response,
14,Pilot (test data collection),False,0,True,True,000,0,0,False,False,False,False,110,0.0-67.0,1,1644,[0],stimuli/0000110.jpg,330584,prediction_trial,98,image-keyboard-response,
14,Pilot (test data collection),False,0,False,False,111,2,1,False,False,True,True,110,0.0-69.0,2,1039,"[1, 0, 2]",stimuli/2111110.jpg,332243,prediction_trial,100,image-keyboard-response,
14,Pilot (test data collection),True,1,False,False,111,1,1,False,False,True,True,100,0.0-71.0,1,1363,"[1, 0, 2]",stimuli/1111100.jpg,335032,prediction_trial,102,image-keyboard-response,
14,Pilot (test data collection),True,1,False,False,111,0,0,False,False,True,True,010,0.0-73.0,0,1268,"[1, 0, 2]",stimuli/0111010.jpg,336788,prediction_trial,104,image-keyboard-response,
14,Pilot (test data collection),True,1,True,True,001,1,1,False,False,False,False,011,0.0-75.0,1,1662,[1],stimuli/1001011.jpg,339024,prediction_trial,106,image-keyboard-response,
14,Pilot (test data collection),True,1,True,True,001,1,1,True,True,True,True,001,0.0-77.0,1,1136,[1],stimuli/1001001.jpg,340709,prediction_trial,108,image-keyboard-response,
14,Pilot (test data collection),False,0,False,False,111,2,1,False,False,True,True,010,0.0-79.0,2,1113,"[2, 0, 1]",stimuli/2111010.jpg,342344,prediction_trial,110,image-keyboard-response,
14,Pilot (test data collection),True,1,False,True,001,2,2,False,True,True,True,100,0.0-81.0,2,1124,[2],stimuli/2001100.jpg,344083,prediction_trial,112,image-keyboard-response,
14,Pilot (test data collection),False,0,False,False,111,1,2,False,False,False,True,010,0.0-83.0,1,2460,"[2, 1, 0]",stimuli/1111010.jpg,347084,prediction_trial,114,image-keyboard-response,
14,Pilot (test data collection),True,1,False,False,111,1,2,False,False,False,False,011,0.0-85.0,2,1241,"[2, 1, 0]",stimuli/1111011.jpg,348847,prediction_trial,116,image-keyboard-response,
14,Pilot (test data collection),False,0,False,False,011,2,1,False,False,False,False,101,0.0-87.0,0,1499,"[2, 1]",stimuli/2011101.jpg,351040,prediction_trial,118,image-keyboard-response,
14,Pilot (test data collection),True,1,False,False,111,2,2,False,False,True,True,010,0.0-89.0,2,2867,"[2, 0, 1]",stimuli/2111010.jpg,354434,prediction_trial,120,image-keyboard-response,
14,Pilot (test data collection),True,1,False,True,001,2,2,False,False,False,False,011,0.0-91.0,2,1060,[2],stimuli/2001011.jpg,355949,prediction_trial,122,image-keyboard-response,
14,Pilot (test data collection),False,0,False,False,101,0,0,False,False,False,False,111,0.0-93.0,2,2468,"[2, 0]",stimuli/0101111.jpg,359155,prediction_trial,124,image-keyboard-response,
14,Pilot (test data collection),True,1,True,True,010,0,0,True,True,True,True,000,0.0-95.0,0,1509,[0],stimuli/0010000.jpg,361730,prediction_trial,126,image-keyboard-response,
14,Pilot (test data collection),True,1,True,True,011,0,0,True,True,True,True,000,0.0-97.0,0,1045,[0],stimuli/0011000.jpg,363516,prediction_trial,128,image-keyboard-response,
14,Pilot (test data collection),True,1,True,True,000,2,2,True,True,True,True,110,0.0-99.0,2,1248,[2],stimuli/2000110.jpg,365318,prediction_trial,130,image-keyboard-response,
14,Pilot (test data collection),False,0,False,False,111,2,1,False,False,True,True,000,0.0-101.0,2,609,"[0, 1, 2]",stimuli/2111000.jpg,366417,prediction_trial,132,image-keyboard-response,
14,Pilot (test data collection),True,1,False,True,001,2,2,False,True,True,True,000,0.0-103.0,2,701,[2],stimuli/2001000.jpg,368371,prediction_trial,134,image-keyboard-response,
14,Pilot (test data collection),True,1,False,False,111,2,1,False,False,False,False,011,0.0-105.0,1,1492,"[1, 0, 2]",stimuli/2111011.jpg,370417,prediction_trial,136,image-keyboard-response,
14,Pilot (test data collection),True,1,False,False,101,0,0,False,False,True,True,001,0.0-107.0,0,1394,"[2, 0]",stimuli/0101001.jpg,372450,prediction_trial,138,image-keyboard-response,
14,Pilot (test data collection),False,0,False,True,100,0,0,False,False,False,False,111,0.0-109.0,1,1503,[0],stimuli/0100111.jpg,374527,prediction_trial,140,image-keyboard-response,
14,Pilot (test data collection),True,1,False,False,111,2,2,False,False,False,True,001,0.0-111.0,2,740,"[0, 1, 2]",stimuli/2111001.jpg,375888,prediction_trial,142,image-keyboard-response,
14,Pilot (test data collection),False,0,False,True,100,0,0,False,False,False,False,110,0.0-113.0,1,1263,[0],stimuli/0100110.jpg,377704,prediction_trial,144,image-keyboard-response,
14,Pilot (test data collection),True,1,False,False,011,1,1,False,False,True,True,000,0.0-115.0,1,1157,"[2, 1]",stimuli/1011000.jpg,379475,prediction_trial,146,image-keyboard-response,
14,Pilot (test data collection),True,1,True,True,011,0,0,True,True,True,True,011,0.0-117.0,0,1172,[0],stimuli/0011011.jpg,381180,prediction_trial,148,image-keyboard-response,
14,Pilot (test data collection),True,1,True,True,100,2,2,False,False,False,False,111,0.0-119.0,2,1408,[2],stimuli/2100111.jpg,383099,prediction_trial,150,image-keyboard-response,
14,Pilot (test data collection),True,1,False,False,111,0,0,False,False,True,True,010,0.0-121.0,0,954,"[1, 0, 2]",stimuli/0111010.jpg,384579,prediction_trial,152,image-keyboard-response,
14,Pilot (test data collection),True,1,False,False,111,0,0,False,False,True,True,001,0.0-123.0,0,953,"[1, 2, 0]",stimuli/0111001.jpg,386092,prediction_trial,154,image-keyboard-response,
14,Pilot (test data collection),True,1,True,True,110,2,2,False,False,False,False,111,0.0-125.0,2,1067,[2],stimuli/2110111.jpg,387608,prediction_trial,156,image-keyboard-response,
14,Pilot (test data collection),False,0,False,False,111,0,1,False,False,True,True,011,0.0-127.0,0,892,"[2, 1, 0]",stimuli/0111011.jpg,389046,prediction_trial,158,image-keyboard-response,
14,Pilot (test data collection),False,0,False,False,111,1,2,False,False,False,False,011,0.0-129.0,1,694,"[2, 1, 0]",stimuli/1111011.jpg,390494,prediction_trial,160,image-keyboard-response,
14,Pilot (test data collection),False,0,False,False,111,0,2,False,False,True,True,000,0.0-131.0,0,1084,"[2, 0, 1]",stimuli/0111000.jpg,392055,prediction_trial,162,image-keyboard-response,
14,Pilot (test data collection),False,0,True,True,000,2,2,False,False,False,False,111,0.0-133.0,1,1311,[2],stimuli/2000111.jpg,395188,prediction_trial,164,image-keyboard-response,
14,Pilot (test data collection),True,1,False,False,111,0,0,False,False,True,True,010,0.0-135.0,0,1466,"[1, 0, 2]",stimuli/0111010.jpg,397283,prediction_trial,166,image-keyboard-response,
14,Pilot (test data collection),False,0,False,False,011,1,2,False,False,False,True,010,0.0-137.0,1,2465,"[2, 1]",stimuli/1011010.jpg,400541,prediction_trial,168,image-keyboard-response,
14,Pilot (test data collection),False,0,False,False,111,2,0,False,False,True,True,000,0.0-139.0,2,788,"[0, 1, 2]",stimuli/2111000.jpg,401841,prediction_trial,170,image-keyboard-response,
14,Pilot (test data collection),True,1,True,True,000,1,1,True,True,True,True,000,0.0-141.0,1,1472,[1],stimuli/1000000.jpg,404325,prediction_trial,172,image-keyboard-response,
14,Pilot (test data collection),True,1,True,True,010,2,2,True,True,True,True,110,0.0-143.0,2,1697,[2],stimuli/2010110.jpg,406673,prediction_trial,174,image-keyboard-response,
14,Pilot (test data collection),False,0,False,False,110,1,0,False,False,True,True,001,0.0-145.0,1,1538,"[1, 0]",stimuli/1110001.jpg,408773,prediction_trial,176,image-keyboard-response,
14,Pilot (test data collection),False,0,False,False,101,0,2,False,False,True,True,011,0.0-147.0,0,2256,"[0, 2]",stimuli/0101011.jpg,411610,prediction_trial,178,image-keyboard-response,
14,Pilot (test data collection),True,1,True,True,100,2,2,True,True,True,True,110,0.0-149.0,2,1902,[2],stimuli/2100110.jpg,414390,prediction_trial,180,image-keyboard-response,
14,Pilot (test data collection),False,0,False,False,111,2,1,False,False,False,True,001,0.0-151.0,2,1500,"[0, 1, 2]",stimuli/2111001.jpg,416446,prediction_trial,182,image-keyboard-response,
14,Pilot (test data collection),False,0,False,False,111,1,0,False,False,False,True,010,0.0-153.0,1,1908,"[2, 1, 0]",stimuli/1111010.jpg,419127,prediction_trial,184,image-keyboard-response,
14,Pilot (test data collection),False,0,False,False,111,0,2,False,False,False,True,100,0.0-155.0,0,2042,"[0, 2, 1]",stimuli/0111100.jpg,421691,prediction_trial,186,image-keyboard-response,
14,Pilot (test data collection),True,1,False,False,011,2,2,False,False,True,True,000,0.0-157.0,2,846,"[2, 1]",stimuli/2011000.jpg,423090,prediction_trial,188,image-keyboard-response,
14,Pilot (test data collection),False,0,False,False,110,0,0,False,False,False,False,110,0.0-159.0,1,2490,"[1, 0]",stimuli/0110110.jpg,426017,prediction_trial,190,image-keyboard-response,
14,Pilot (test data collection),False,0,False,False,111,2,1,False,False,True,True,100,0.0-161.0,2,755,"[2, 1, 0]",stimuli/2111100.jpg,427347,prediction_trial,192,image-keyboard-response,
14,Pilot (test data collection),False,0,False,False,111,2,1,False,False,False,False,111,0.0-163.0,0,1106,"[0, 1, 2]",stimuli/2111111.jpg,428976,prediction_trial,194,image-keyboard-response,
14,Pilot (test data collection),True,1,False,False,111,0,0,False,False,False,False,101,0.0-165.0,0,1194,"[1, 2, 0]",stimuli/0111101.jpg,430754,prediction_trial,196,image-keyboard-response,
14,Pilot (test data collection),True,1,False,False,101,2,2,False,False,False,True,001,0.0-167.0,2,1385,"[2, 0]",stimuli/2101001.jpg,432850,prediction_trial,198,image-keyboard-response,
14,Pilot (test data collection),True,1,False,False,111,0,1,False,False,False,False,110,0.0-169.0,1,1439,"[2, 0, 1]",stimuli/0111110.jpg,434946,prediction_trial,200,image-keyboard-response,
14,Pilot (test data collection),False,0,False,False,111,0,0,False,False,False,False,101,0.0-171.0,2,1459,"[1, 2, 0]",stimuli/0111101.jpg,436894,prediction_trial,202,image-keyboard-response,
14,Pilot (test data collection),False,0,False,False,111,2,2,False,False,False,False,101,0.0-173.0,0,987,"[2, 1, 0]",stimuli/2111101.jpg,438466,prediction_trial,204,image-keyboard-response,
14,Pilot (test data collection),True,1,True,True,010,2,2,False,False,False,False,101,0.0-175.0,2,2808,[2],stimuli/2010101.jpg,441994,prediction_trial,206,image-keyboard-response,
14,Pilot (test data collection),False,0,True,True,011,0,0,False,False,False,False,111,0.0-177.0,2,2774,[0],stimuli/0011111.jpg,445385,prediction_trial,208,image-keyboard-response,
14,Pilot (test data collection),True,1,True,True,001,1,1,True,True,True,True,101,0.0-179.0,1,1272,[1],stimuli/1001101.jpg,447225,prediction_trial,210,image-keyboard-response,
14,Pilot (test data collection),False,0,False,False,111,0,2,False,False,True,True,011,0.0-181.0,0,1111,"[2, 1, 0]",stimuli/0111011.jpg,448929,prediction_trial,212,image-keyboard-response,
14,Pilot (test data collection),True,1,False,False,111,2,2,False,False,True,True,010,0.0-183.0,2,1627,"[2, 0, 1]",stimuli/2111010.jpg,451450,prediction_trial,214,image-keyboard-response,
14,Pilot (test data collection),True,1,False,False,111,2,2,False,False,True,True,100,0.0-185.0,2,1201,"[2, 1, 0]",stimuli/2111100.jpg,453290,prediction_trial,216,image-keyboard-response,
14,Pilot (test data collection),False,0,False,False,011,1,2,False,False,True,True,001,0.0-187.0,1,1474,"[2, 1]",stimuli/1011001.jpg,455289,prediction_trial,218,image-keyboard-response,
14,Pilot (test data collection),False,0,False,False,111,1,2,False,False,True,True,100,0.0-189.0,0,1078,"[1, 0, 2]",stimuli/1111100.jpg,456877,prediction_trial,220,image-keyboard-response,
14,Pilot (test data collection),False,0,False,False,111,1,0,False,False,True,True,101,0.0-191.0,1,1378,"[0, 1, 2]",stimuli/1111101.jpg,459026,prediction_trial,222,image-keyboard-response,
14,Pilot (test data collection),True,1,False,True,100,0,0,False,True,True,True,000,0.0-193.0,0,780,[0],stimuli/0100000.jpg,460513,prediction_trial,224,image-keyboard-response,
14,Pilot (test data collection),True,1,False,False,111,0,0,False,False,True,True,011,0.0-195.0,0,1436,"[2, 1, 0]",stimuli/0111011.jpg,462683,prediction_trial,226,image-keyboard-response,
14,Pilot (test data collection),False,0,False,False,110,1,0,False,False,True,True,101,0.0-197.0,1,1025,"[0, 1]",stimuli/1110101.jpg,464405,prediction_trial,228,image-keyboard-response,
14,Pilot (test data collection),True,1,False,False,111,2,2,False,False,False,False,111,0.0-199.0,2,921,"[0, 1, 2]",stimuli/2111111.jpg,465895,prediction_trial,230,image-keyboard-response,
14,Pilot (test data collection),True,1,False,False,111,1,2,False,False,False,False,110,0.0-201.0,2,1530,"[2, 0, 1]",stimuli/1111110.jpg,468061,prediction_trial,232,image-keyboard-response,
14,Pilot (test data collection),True,1,False,False,111,2,0,False,False,True,True,100,0.0-203.0,0,3866,"[2, 1, 0]",stimuli/2111100.jpg,472608,prediction_trial,234,image-keyboard-response,
14,Pilot (test data collection),False,0,False,True,010,1,1,False,True,True,True,100,0.0-205.0,0,2304,[1],stimuli/1010100.jpg,475685,prediction_trial,236,image-keyboard-response,
14,Pilot (test data collection),False,0,False,False,011,2,2,False,False,True,True,010,0.0-207.0,1,2293,"[1, 2]",stimuli/2011010.jpg,479040,prediction_trial,238,image-keyboard-response,
14,Pilot (test data collection),False,0,False,False,111,0,1,False,False,True,True,000,0.0-209.0,0,912,"[2, 0, 1]",stimuli/0111000.jpg,480577,prediction_trial,240,image-keyboard-response,
14,Pilot (test data collection),True,1,True,True,010,2,2,False,True,False,True,001,0.0-211.0,2,1813,[2],stimuli/2010001.jpg,483599,prediction_trial,242,image-keyboard-response,
14,Pilot (test data collection),False,0,True,True,100,2,2,True,True,True,True,010,0.0-213.0,1,1269,[2],stimuli/2100010.jpg,485394,prediction_trial,244,image-keyboard-response,
14,Pilot (test data collection),True,1,False,False,011,1,1,False,False,True,True,100,0.0-215.0,1,844,"[1, 2]",stimuli/1011100.jpg,486764,prediction_trial,246,image-keyboard-response,
14,Pilot (test data collection),False,0,False,False,111,0,2,False,False,True,True,001,0.0-217.0,0,1084,"[1, 2, 0]",stimuli/0111001.jpg,488437,prediction_trial,248,image-keyboard-response,
14,Pilot (test data collection),False,0,True,True,000,1,1,False,False,False,False,011,0.0-219.0,2,1576,[1],stimuli/1000011.jpg,490890,prediction_trial,250,image-keyboard-response,
14,Pilot (test data collection),True,1,True,True,000,2,2,True,True,True,True,000,0.0-221.0,2,564,[2],stimuli/2000000.jpg,491972,prediction_trial,252,image-keyboard-response,
14,Pilot (test data collection),True,1,True,True,010,2,2,True,True,True,True,010,0.0-223.0,2,1604,[2],stimuli/2010010.jpg,494041,prediction_trial,254,image-keyboard-response,
14,Pilot (test data collection),False,0,False,False,110,0,1,False,False,True,True,001,0.0-225.0,0,995,"[1, 0]",stimuli/0110001.jpg,495492,prediction_trial,256,image-keyboard-response,
14,Pilot (test data collection),True,1,True,True,101,1,1,False,False,False,False,110,0.0-227.0,1,1313,[1],stimuli/1101110.jpg,497600,prediction_trial,258,image-keyboard-response,
14,Pilot (test data collection),False,0,True,True,110,2,2,False,False,False,False,011,0.0-229.0,1,1013,[2],stimuli/2110011.jpg,499039,prediction_trial,260,image-keyboard-response,
14,Pilot (test data collection),False,0,False,False,111,1,2,False,False,False,False,110,0.0-231.0,0,1896,"[2, 0, 1]",stimuli/1111110.jpg,501500,prediction_trial,262,image-keyboard-response,
14,Pilot (test data collection),True,1,False,False,111,2,2,False,False,True,True,000,0.0-233.0,2,800,"[0, 1, 2]",stimuli/2111000.jpg,502770,prediction_trial,264,image-keyboard-response,
14,Pilot (test data collection),True,1,False,False,011,2,2,False,False,False,False,011,0.0-235.0,2,933,"[1, 2]",stimuli/2011011.jpg,504140,prediction_trial,266,image-keyboard-response,
14,Pilot (test data collection),True,1,False,False,111,2,2,False,False,False,False,101,0.0-237.0,2,1034,"[2, 1, 0]",stimuli/2111101.jpg,505702,prediction_trial,268,image-keyboard-response,
14,Pilot (test data collection),False,0,True,True,000,1,1,False,False,False,False,110,0.0-239.0,2,1174,[1],stimuli/1000110.jpg,507350,prediction_trial,270,image-keyboard-response,
14,Pilot (test data collection),True,1,False,False,111,2,0,False,False,False,False,011,0.0-241.0,0,1685,"[1, 0, 2]",stimuli/2111011.jpg,509506,prediction_trial,272,image-keyboard-response,
14,Pilot (test data collection),False,0,False,False,111,0,2,False,False,False,False,110,0.0-243.0,1,759,"[2, 0, 1]",stimuli/0111110.jpg,512354,prediction_trial,274,image-keyboard-response,
14,Pilot (test data collection),True,1,True,True,001,0,0,False,False,False,False,111,0.0-245.0,0,1182,[0],stimuli/0001111.jpg,514385,prediction_trial,276,image-keyboard-response,
14,Pilot (test data collection),True,1,False,False,111,1,1,False,False,True,True,100,0.0-247.0,1,2038,"[1, 0, 2]",stimuli/1111100.jpg,517049,prediction_trial,278,image-keyboard-response,
14,Pilot (test data collection),True,1,False,False,111,2,2,False,False,True,True,110,0.0-249.0,2,877,"[1, 0, 2]",stimuli/2111110.jpg,518463,prediction_trial,280,image-keyboard-response,
14,Pilot (test data collection),False,0,False,False,101,2,2,False,False,False,False,011,0.0-251.0,1,1368,"[2, 0]",stimuli/2101011.jpg,520339,prediction_trial,282,image-keyboard-response,
14,Pilot (test data collection),True,1,True,True,001,0,0,False,False,False,False,101,0.0-253.0,0,1155,[0],stimuli/0001101.jpg,522145,prediction_trial,284,image-keyboard-response,
14,Pilot (test data collection),False,0,False,False,111,2,2,False,False,False,False,011,0.0-255.0,1,1313,"[1, 0, 2]",stimuli/2111011.jpg,524156,prediction_trial,286,image-keyboard-response,
14,Pilot (test data collection),False,0,False,False,111,0,1,False,False,False,False,111,0.0-257.0,2,767,"[2, 1, 0]",stimuli/0111111.jpg,525477,prediction_trial,288,image-keyboard-response,
14,Pilot (test data collection),False,0,False,False,111,1,0,False,False,True,True,001,0.0-259.0,1,1228,"[0, 2, 1]",stimuli/1111001.jpg,527321,prediction_trial,290,image-keyboard-response,
14,Pilot (test data collection),False,0,False,False,111,2,0,False,False,False,False,111,0.0-261.0,2,706,"[0, 1, 2]",stimuli/2111111.jpg,528893,prediction_trial,292,image-keyboard-response,
14,Pilot (test data collection),False,0,True,True,000,2,2,False,True,False,True,001,0.0-263.0,0,1425,[2],stimuli/2000001.jpg,531104,prediction_trial,294,image-keyboard-response,
14,Pilot (test data collection),True,1,False,False,111,0,0,False,False,False,False,111,0.0-265.0,0,1716,"[2, 1, 0]",stimuli/0111111.jpg,533398,prediction_trial,296,image-keyboard-response,
14,Pilot (test data collection),False,0,False,False,111,1,1,False,False,False,False,111,0.0-267.0,0,1264,"[1, 0, 2]",stimuli/1111111.jpg,535375,prediction_trial,298,image-keyboard-response,
14,Pilot (test data collection),False,0,False,False,101,0,0,False,False,False,False,110,0.0-269.0,2,1205,"[0, 2]",stimuli/0101110.jpg,537193,prediction_trial,300,image-keyboard-response,
14,Pilot (test data collection),False,0,False,False,111,0,0,False,False,False,False,111,0.0-271.0,1,1234,"[2, 1, 0]",stimuli/0111111.jpg,538991,prediction_trial,302,image-keyboard-response,
14,Pilot (test data collection),False,0,False,False,111,1,0,False,False,True,True,000,0.0-273.0,1,1151,"[2, 0, 1]",stimuli/1111000.jpg,540608,prediction_trial,304,image-keyboard-response,
14,Pilot (test data collection),False,0,False,False,111,1,1,False,False,False,False,111,0.0-275.0,2,1068,"[1, 0, 2]",stimuli/1111111.jpg,542446,prediction_trial,306,image-keyboard-response,
14,Pilot (test data collection),True,1,False,False,111,1,0,False,False,False,True,010,0.0-277.0,0,874,"[2, 1, 0]",stimuli/1111010.jpg,543811,prediction_trial,308,image-keyboard-response,
14,Pilot (test data collection),True,1,True,True,000,0,0,False,False,False,False,111,0.0-279.0,0,1001,[0],stimuli/0000111.jpg,545971,prediction_trial,310,image-keyboard-response,
14,Pilot (test data collection),False,0,False,False,111,1,0,False,False,True,True,101,0.0-281.0,2,1445,"[0, 1, 2]",stimuli/1111101.jpg,549011,prediction_trial,312,image-keyboard-response,
14,Pilot (test data collection),True,1,False,False,111,1,2,False,False,False,False,111,0.0-283.0,2,1323,"[1, 0, 2]",stimuli/1111111.jpg,551285,prediction_trial,314,image-keyboard-response,
14,Pilot (test data collection),False,0,False,False,111,1,2,False,False,True,True,000,0.0-285.0,1,945,"[2, 0, 1]",stimuli/1111000.jpg,553181,prediction_trial,316,image-keyboard-response,
14,Pilot (test data collection),True,1,True,True,010,0,0,True,True,True,True,010,0.0-287.0,0,1003,[0],stimuli/0010010.jpg,554669,prediction_trial,318,image-keyboard-response,
14,Pilot (test data collection),True,1,True,True,110,2,2,False,False,False,False,101,0.0-289.0,2,1292,[2],stimuli/2110101.jpg,556474,prediction_trial,320,image-keyboard-response,
14,Pilot (test data collection),True,1,False,False,111,0,2,False,False,False,False,101,0.0-291.0,2,1589,"[1, 2, 0]",stimuli/0111101.jpg,558624,prediction_trial,322,image-keyboard-response,
12,Pilot (test data collection),False,0,False,False,111,2,0,False,False,True,True,110,0.0-5.0,2,2487,"[0, 2, 1]",stimuli/2111110.jpg,188461,prediction_trial,36,image-keyboard-response,
12,Pilot (test data collection),False,0,False,False,111,0,2,False,False,True,True,011,0.0-7.0,0,3173,"[2, 0, 1]",stimuli/0111011.jpg,195565,prediction_trial,38,image-keyboard-response,
12,Pilot (test data collection),True,1,False,False,111,2,2,False,False,False,True,001,0.0-9.0,2,2092,"[0, 1, 2]",stimuli/2111001.jpg,200415,prediction_trial,40,image-keyboard-response,
12,Pilot (test data collection),False,0,False,False,111,2,1,False,False,False,False,111,0.0-11.0,2,742,"[0, 2, 1]",stimuli/2111111.jpg,201785,prediction_trial,42,image-keyboard-response,
12,Pilot (test data collection),False,0,False,False,111,1,0,False,False,False,False,110,0.0-13.0,1,995,"[0, 2, 1]",stimuli/1111110.jpg,203219,prediction_trial,44,image-keyboard-response,
12,Pilot (test data collection),False,0,False,True,001,2,2,False,True,True,True,100,0.0-15.0,0,2303,[2],stimuli/2001100.jpg,205983,prediction_trial,46,image-keyboard-response,
12,Pilot (test data collection),True,1,False,False,111,0,0,False,False,True,True,001,0.0-17.0,0,783,"[1, 2, 0]",stimuli/0111001.jpg,207584,prediction_trial,48,image-keyboard-response,
12,Pilot (test data collection),False,0,False,False,110,0,1,False,False,False,True,100,0.0-19.0,0,784,"[0, 1]",stimuli/0110100.jpg,208960,prediction_trial,50,image-keyboard-response,
12,Pilot (test data collection),True,1,True,True,001,0,0,False,True,False,True,100,0.0-21.0,0,4280,[0],stimuli/0001100.jpg,213730,prediction_trial,52,image-keyboard-response,
12,Pilot (test data collection),False,0,False,False,111,2,0,False,False,True,True,100,0.0-23.0,2,1702,"[2, 1, 0]",stimuli/2111100.jpg,216095,prediction_trial,54,image-keyboard-response,
12,Pilot (test data collection),False,0,False,False,111,1,0,False,False,False,True,010,0.0-25.0,1,1952,"[1, 2, 0]",stimuli/1111010.jpg,219680,prediction_trial,56,image-keyboard-response,
12,Pilot (test data collection),False,0,False,False,101,0,0,False,False,False,False,110,0.0-27.0,1,1933,"[0, 2]",stimuli/0101110.jpg,222415,prediction_trial,58,image-keyboard-response,
12,Pilot (test data collection),False,0,False,False,111,2,0,False,False,False,False,011,0.0-29.0,1,1555,"[1, 0, 2]",stimuli/2111011.jpg,224659,prediction_trial,60,image-keyboard-response,
12,Pilot (test data collection),False,0,False,False,110,0,0,False,False,False,False,111,0.0-31.0,2,2348,"[0, 1]",stimuli/0110111.jpg,227572,prediction_trial,62,image-keyboard-response,
12,Pilot (test data collection),True,1,False,False,011,1,1,False,False,True,True,101,0.0-33.0,1,2463,"[1, 2]",stimuli/1011101.jpg,232372,prediction_trial,64,image-keyboard-response,
12,Pilot (test data collection),False,0,False,False,111,1,2,False,False,False,True,010,0.0-35.0,1,1657,"[1, 2, 0]",stimuli/1111010.jpg,234711,prediction_trial,66,image-keyboard-response,
12,Pilot (test data collection),True,1,True,True,000,1,1,False,False,False,False,110,0.0-37.0,1,1437,[1],stimuli/1000110.jpg,237419,prediction_trial,68,image-keyboard-response,
12,Pilot (test data collection),False,0,False,False,111,0,2,False,False,True,True,011,0.0-39.0,0,1073,"[2, 0, 1]",stimuli/0111011.jpg,239052,prediction_trial,70,image-keyboard-response,
12,Pilot (test data collection),False,0,False,False,111,2,1,False,False,False,False,111,0.0-41.0,0,742,"[0, 2, 1]",stimuli/2111111.jpg,240574,prediction_trial,72,image-keyboard-response,
12,Pilot (test data collection),True,1,True,True,110,2,2,True,True,True,True,110,0.0-43.0,2,2185,[2],stimuli/2110110.jpg,243311,prediction_trial,74,image-keyboard-response,
12,Pilot (test data collection),False,0,False,False,111,0,2,False,False,False,False,110,0.0-45.0,1,1016,"[0, 1, 2]",stimuli/0111110.jpg,244985,prediction_trial,76,image-keyboard-response,
12,Pilot (test data collection),True,1,True,True,000,1,1,False,True,False,True,010,0.0-47.0,1,559,[1],stimuli/1000010.jpg,246238,prediction_trial,78,image-keyboard-response,
12,Pilot (test data collection),False,0,True,True,100,2,2,False,False,False,False,011,0.0-49.0,1,558,[2],stimuli/2100011.jpg,247535,prediction_trial,80,image-keyboard-response,
12,Pilot (test data collection),True,1,False,False,011,1,1,False,False,True,True,000,0.0-51.0,1,781,"[2, 1]",stimuli/1011000.jpg,248798,prediction_trial,82,image-keyboard-response,
12,Pilot (test data collection),True,1,False,False,101,2,2,False,False,False,True,001,0.0-53.0,2,742,"[0, 2]",stimuli/2101001.jpg,250126,prediction_trial,84,image-keyboard-response,
12,Pilot (test data collection),True,1,False,False,111,1,1,False,False,True,True,101,0.0-55.0,1,695,"[0, 1, 2]",stimuli/1111101.jpg,251391,prediction_trial,86,image-keyboard-response,
12,Pilot (test data collection),True,1,False,False,111,2,2,False,False,True,True,000,0.0-57.0,2,559,"[2, 0, 1]",stimuli/2111000.jpg,252510,prediction_trial,88,image-keyboard-response,
12,Pilot (test data collection),False,0,False,False,111,2,0,False,False,False,True,001,0.0-59.0,2,766,"[0, 1, 2]",stimuli/2111001.jpg,253823,prediction_trial,90,image-keyboard-response,
12,Pilot (test data collection),True,1,False,True,010,1,1,False,True,True,True,101,0.0-61.0,1,984,[1],stimuli/1010101.jpg,255874,prediction_trial,92,image-keyboard-response,
12,Pilot (test data collection),False,0,False,False,111,2,1,False,False,True,True,110,0.0-63.0,2,703,"[0, 2, 1]",stimuli/2111110.jpg,257630,prediction_trial,94,image-keyboard-response,
12,Pilot (test data collection),False,0,False,False,111,2,0,False,False,False,False,101,0.0-65.0,1,908,"[2, 0, 1]",stimuli/2111101.jpg,259404,prediction_trial,96,image-keyboard-response,
12,Pilot (test data collection),False,0,True,True,000,0,0,False,False,False,False,110,0.0-67.0,1,726,[0],stimuli/0000110.jpg,261027,prediction_trial,98,image-keyboard-response,
12,Pilot (test data collection),True,1,True,True,010,2,2,True,True,True,True,110,0.0-69.0,2,951,[2],stimuli/2010110.jpg,262531,prediction_trial,100,image-keyboard-response,
12,Pilot (test data collection),True,1,False,True,010,1,1,False,True,False,True,010,0.0-71.0,1,1478,[1],stimuli/1010010.jpg,264722,prediction_trial,102,image-keyboard-response,
12,Pilot (test data collection),False,0,False,False,101,0,2,False,False,True,True,011,0.0-73.0,0,1486,"[2, 0]",stimuli/0101011.jpg,267171,prediction_trial,104,image-keyboard-response,
12,Pilot (test data collection),True,1,False,False,111,0,0,False,False,False,False,110,0.0-75.0,0,751,"[0, 1, 2]",stimuli/0111110.jpg,271076,prediction_trial,106,image-keyboard-response,
12,Pilot (test data collection),True,1,True,True,011,0,0,True,True,True,True,001,0.0-77.0,0,932,[0],stimuli/0011001.jpg,272667,prediction_trial,108,image-keyboard-response,
12,Pilot (test data collection),False,0,False,False,111,2,1,False,False,True,True,010,0.0-79.0,2,2596,"[1, 2, 0]",stimuli/2111010.jpg,275839,prediction_trial,110,image-keyboard-response,
12,Pilot (test data collection),False,0,False,False,111,0,2,False,False,False,False,110,0.0-81.0,1,1095,"[0, 1, 2]",stimuli/0111110.jpg,277758,prediction_trial,112,image-keyboard-response,
12,Pilot (test data collection),True,1,False,False,111,0,2,False,False,False,False,101,0.0-83.0,2,976,"[0, 1, 2]",stimuli/0111101.jpg,279647,prediction_trial,114,image-keyboard-response,
12,Pilot (test data collection),False,0,False,False,111,2,1,False,False,False,False,111,0.0-85.0,2,1008,"[0, 2, 1]",stimuli/2111111.jpg,281126,prediction_trial,116,image-keyboard-response,
12,Pilot (test data collection),True,1,True,True,101,1,1,True,True,True,True,100,0.0-87.0,1,711,[1],stimuli/1101100.jpg,282582,prediction_trial,118,image-keyboard-response,
12,Pilot (test data collection),False,0,False,False,111,2,1,False,False,True,True,100,0.0-89.0,2,615,"[2, 1, 0]",stimuli/2111100.jpg,283718,prediction_trial,120,image-keyboard-response,
12,Pilot (test data collection),True,1,True,True,010,2,2,True,True,True,True,000,0.0-91.0,2,800,[2],stimuli/2010000.jpg,285671,prediction_trial,122,image-keyboard-response,
12,Pilot (test data collection),True,1,False,True,010,1,1,False,True,True,True,000,0.0-93.0,1,608,[1],stimuli/1010000.jpg,286999,prediction_trial,124,image-keyboard-response,
12,Pilot (test data collection),True,1,False,False,111,1,1,False,False,False,False,011,0.0-95.0,1,810,"[0, 2, 1]",stimuli/1111011.jpg,288347,prediction_trial,126,image-keyboard-response,
12,Pilot (test data collection),False,0,False,False,111,0,2,False,False,False,True,100,0.0-97.0,0,984,"[2, 1, 0]",stimuli/0111100.jpg,289975,prediction_trial,128,image-keyboard-response,
12,Pilot (test data collection),False,0,False,False,011,1,2,False,False,True,True,100,0.0-99.0,1,886,"[1, 2]",stimuli/1011100.jpg,291423,prediction_trial,130,image-keyboard-response,
12,Pilot (test data collection),False,0,False,False,011,2,2,False,False,False,False,101,0.0-101.0,1,1534,"[2, 1]",stimuli/2011101.jpg,293431,prediction_trial,132,image-keyboard-response,
12,Pilot (test data collection),True,1,True,True,001,1,1,False,False,False,False,110,0.0-103.0,1,718,[1],stimuli/1001110.jpg,294599,prediction_trial,134,image-keyboard-response,
12,Pilot (test data collection),True,1,True,True,010,0,0,True,True,True,True,000,0.0-105.0,0,892,[0],stimuli/0010000.jpg,295931,prediction_trial,136,image-keyboard-response,
12,Pilot (test data collection),False,0,False,False,111,2,2,False,False,False,False,011,0.0-107.0,0,967,"[1, 0, 2]",stimuli/2111011.jpg,297327,prediction_trial,138,image-keyboard-response,
12,Pilot (test data collection),False,0,False,False,110,1,0,False,False,True,True,100,0.0-109.0,1,814,"[0, 1]",stimuli/1110100.jpg,298599,prediction_trial,140,image-keyboard-response,
12,Pilot (test data collection),True,1,False,False,111,2,2,False,False,True,True,100,0.0-111.0,2,913,"[2, 1, 0]",stimuli/2111100.jpg,299992,prediction_trial,142,image-keyboard-response,
12,Pilot (test data collection),True,1,True,True,010,2,2,False,True,False,True,001,0.0-113.0,2,1069,[2],stimuli/2010001.jpg,301509,prediction_trial,144,image-keyboard-response,
12,Pilot (test data collection),False,0,False,False,111,1,2,False,False,False,False,011,0.0-115.0,1,1076,"[0, 2, 1]",stimuli/1111011.jpg,303019,prediction_trial,146,image-keyboard-response,
12,Pilot (test data collection),False,0,True,True,000,0,0,False,False,False,False,111,0.0-117.0,1,921,[0],stimuli/0000111.jpg,304499,prediction_trial,148,image-keyboard-response,
12,Pilot (test data collection),True,1,False,True,010,1,1,False,False,False,False,111,0.0-119.0,1,893,[1],stimuli/1010111.jpg,305863,prediction_trial,150,image-keyboard-response,
12,Pilot (test data collection),False,0,False,False,111,0,2,False,False,False,False,111,0.0-121.0,1,1008,"[0, 2, 1]",stimuli/0111111.jpg,307994,prediction_trial,152,image-keyboard-response,
12,Pilot (test data collection),True,1,True,True,000,1,1,True,True,True,True,000,0.0-123.0,1,793,[1],stimuli/1000000.jpg,309325,prediction_trial,154,image-keyboard-response,
12,Pilot (test data collection),True,1,True,True,000,1,1,True,True,True,True,100,0.0-125.0,1,591,[1],stimuli/1000100.jpg,310378,prediction_trial,156,image-keyboard-response,
12,Pilot (test data collection),False,0,False,False,111,1,0,False,False,True,True,000,0.0-127.0,1,465,"[1, 0, 2]",stimuli/1111000.jpg,311286,prediction_trial,158,image-keyboard-response,
12,Pilot (test data collection),False,0,False,False,111,0,1,False,False,True,True,000,0.0-129.0,0,1559,"[0, 1, 2]",stimuli/0111000.jpg,313831,prediction_trial,160,image-keyboard-response,
12,Pilot (test data collection),False,0,False,False,111,1,0,False,False,True,True,100,0.0-131.0,1,686,"[1, 2, 0]",stimuli/1111100.jpg,315342,prediction_trial,162,image-keyboard-response,
12,Pilot (test data collection),False,0,False,False,111,0,0,False,False,False,False,101,0.0-133.0,2,2237,"[0, 1, 2]",stimuli/0111101.jpg,318223,prediction_trial,164,image-keyboard-response,
12,Pilot (test data collection),False,0,True,True,100,2,2,True,True,True,True,110,0.0-135.0,1,578,[2],stimuli/2100110.jpg,319298,prediction_trial,166,image-keyboard-response,
12,Pilot (test data collection),False,0,False,False,111,1,1,False,False,True,True,000,0.0-137.0,0,445,"[1, 0, 2]",stimuli/1111000.jpg,320242,prediction_trial,168,image-keyboard-response,
12,Pilot (test data collection),False,0,False,False,111,2,0,False,False,False,False,101,0.0-139.0,1,632,"[2, 0, 1]",stimuli/2111101.jpg,321402,prediction_trial,170,image-keyboard-response,
12,Pilot (test data collection),True,1,True,True,000,2,2,True,True,True,True,110,0.0-141.0,2,1657,[2],stimuli/2000110.jpg,323507,prediction_trial,172,image-keyboard-response,
12,Pilot (test data collection),False,0,True,True,010,0,0,False,False,False,False,111,0.0-143.0,1,1085,[0],stimuli/0010111.jpg,325314,prediction_trial,174,image-keyboard-response,
12,Pilot (test data collection),True,1,True,True,010,0,0,False,True,False,True,100,0.0-145.0,0,1085,[0],stimuli/0010100.jpg,327034,prediction_trial,176,image-keyboard-response,
12,Pilot (test data collection),False,0,False,False,111,2,1,False,False,True,True,010,0.0-147.0,2,1863,"[1, 2, 0]",stimuli/2111010.jpg,329354,prediction_trial,178,image-keyboard-response,
12,Pilot (test data collection),False,0,False,False,111,2,1,False,False,False,True,001,0.0-149.0,2,837,"[0, 1, 2]",stimuli/2111001.jpg,331284,prediction_trial,180,image-keyboard-response,
12,Pilot (test data collection),False,0,True,True,010,2,2,False,False,False,False,011,0.0-151.0,1,1073,[2],stimuli/2010011.jpg,332891,prediction_trial,182,image-keyboard-response,
12,Pilot (test data collection),False,0,True,True,011,0,0,False,False,False,False,101,0.0-153.0,2,871,[0],stimuli/0011101.jpg,334218,prediction_trial,184,image-keyboard-response,
12,Pilot (test data collection),False,0,False,False,111,2,1,False,False,False,False,101,0.0-155.0,0,1976,"[2, 0, 1]",stimuli/2111101.jpg,336634,prediction_trial,186,image-keyboard-response,
12,Pilot (test data collection),False,0,False,False,111,1,0,False,False,True,True,001,0.0-157.0,1,783,"[2, 1, 0]",stimuli/1111001.jpg,337883,prediction_trial,188,image-keyboard-response,
12,Pilot (test data collection),False,0,False,False,111,0,0,False,False,False,False,111,0.0-159.0,1,591,"[0, 2, 1]",stimuli/0111111.jpg,339155,prediction_trial,190,image-keyboard-response,
12,Pilot (test data collection),False,0,False,False,110,0,1,False,False,True,True,001,0.0-161.0,0,685,"[1, 0]",stimuli/0110001.jpg,340323,prediction_trial,192,image-keyboard-response,
12,Pilot (test data collection),False,0,True,True,100,2,2,False,True,False,True,001,0.0-163.0,0,632,[2],stimuli/2100001.jpg,341443,prediction_trial,194,image-keyboard-response,
12,Pilot (test data collection),False,0,True,True,010,0,0,False,False,False,False,110,0.0-165.0,1,629,[0],stimuli/0010110.jpg,342650,prediction_trial,196,image-keyboard-response,
12,Pilot (test data collection),False,0,False,False,111,1,0,False,False,False,True,010,0.0-167.0,1,1326,"[1, 2, 0]",stimuli/1111010.jpg,344451,prediction_trial,198,image-keyboard-response,
12,Pilot (test data collection),True,1,True,True,010,2,2,True,True,True,True,010,0.0-169.0,2,1416,[2],stimuli/2010010.jpg,346371,prediction_trial,200,image-keyboard-response,
12,Pilot (test data collection),True,1,False,False,111,1,2,False,False,False,False,110,0.0-171.0,2,2120,"[0, 2, 1]",stimuli/1111110.jpg,349138,prediction_trial,202,image-keyboard-response,
12,Pilot (test data collection),True,1,True,True,101,1,1,True,True,True,True,101,0.0-173.0,1,1358,[1],stimuli/1101101.jpg,351323,prediction_trial,204,image-keyboard-response,
12,Pilot (test data collection),False,0,False,False,111,1,0,False,False,False,False,111,0.0-175.0,1,1998,"[2, 0, 1]",stimuli/1111111.jpg,353839,prediction_trial,206,image-keyboard-response,
12,Pilot (test data collection),True,1,True,True,110,2,2,False,True,False,True,001,0.0-177.0,2,2696,[2],stimuli/2110001.jpg,357286,prediction_trial,208,image-keyboard-response,
12,Pilot (test data collection),False,0,False,False,111,1,0,False,False,True,True,100,0.0-179.0,1,1357,"[1, 2, 0]",stimuli/1111100.jpg,359462,prediction_trial,210,image-keyboard-response,
12,Pilot (test data collection),True,1,False,False,111,2,2,False,False,True,True,010,0.0-181.0,2,1365,"[1, 2, 0]",stimuli/2111010.jpg,361390,prediction_trial,212,image-keyboard-response,
12,Pilot (test data collection),False,0,False,False,111,0,2,False,False,True,True,011,0.0-183.0,0,3653,"[2, 0, 1]",stimuli/0111011.jpg,365536,prediction_trial,214,image-keyboard-response,
12,Pilot (test data collection),False,0,False,False,111,2,0,False,False,True,True,000,0.0-185.0,2,1335,"[2, 0, 1]",stimuli/2111000.jpg,368072,prediction_trial,216,image-keyboard-response,
12,Pilot (test data collection),True,1,True,True,001,0,0,True,True,True,True,011,0.0-187.0,0,1062,[0],stimuli/0001011.jpg,369792,prediction_trial,218,image-keyboard-response,
12,Pilot (test data collection),True,1,False,False,111,2,2,False,False,True,True,000,0.0-189.0,2,1787,"[2, 0, 1]",stimuli/2111000.jpg,372108,prediction_trial,220,image-keyboard-response,
12,Pilot (test data collection),True,1,True,True,000,0,0,True,True,True,True,000,0.0-191.0,0,1835,[0],stimuli/0000000.jpg,374482,prediction_trial,222,image-keyboard-response,
12,Pilot (test data collection),False,0,False,False,111,0,1,False,False,False,True,100,0.0-193.0,0,1738,"[2, 1, 0]",stimuli/0111100.jpg,376724,prediction_trial,224,image-keyboard-response,
12,Pilot (test data collection),False,0,False,False,111,1,2,False,False,True,True,001,0.0-195.0,1,881,"[2, 1, 0]",stimuli/1111001.jpg,378188,prediction_trial,226,image-keyboard-response,
12,Pilot (test data collection),True,1,True,True,000,1,1,False,False,False,False,011,0.0-197.0,1,935,[1],stimuli/1000011.jpg,379564,prediction_trial,228,image-keyboard-response,
12,Pilot (test data collection),True,1,True,True,101,1,1,False,False,False,False,011,0.0-199.0,1,1046,[1],stimuli/1101011.jpg,381154,prediction_trial,230,image-keyboard-response,
12,Pilot (test data collection),False,0,False,False,111,0,2,False,False,False,False,101,0.0-201.0,0,1276,"[0, 1, 2]",stimuli/0111101.jpg,382916,prediction_trial,232,image-keyboard-response,
12,Pilot (test data collection),False,0,False,False,111,1,0,False,False,True,True,101,0.0-203.0,1,1047,"[0, 1, 2]",stimuli/1111101.jpg,384476,prediction_trial,234,image-keyboard-response,
12,Pilot (test data collection),True,1,True,True,000,1,1,True,True,True,True,101,0.0-205.0,1,875,[1],stimuli/1000101.jpg,385805,prediction_trial,236,image-keyboard-response,
12,Pilot (test data collection),True,1,True,True,000,2,2,False,True,False,True,001,0.0-207.0,2,3517,[2],stimuli/2000001.jpg,389981,prediction_trial,238,image-keyboard-response,
12,Pilot (test data collection),False,0,False,False,111,1,0,False,False,True,True,101,0.0-209.0,1,832,"[0, 1, 2]",stimuli/1111101.jpg,391318,prediction_trial,240,image-keyboard-response,
12,Pilot (test data collection),False,0,False,False,011,1,1,False,False,False,False,110,0.0-211.0,0,1768,"[1, 2]",stimuli/1011110.jpg,393517,prediction_trial,242,image-keyboard-response,
12,Pilot (test data collection),False,0,False,False,111,0,2,False,False,True,True,010,0.0-213.0,0,849,"[2, 0, 1]",stimuli/0111010.jpg,395056,prediction_trial,244,image-keyboard-response,
12,Pilot (test data collection),True,1,False,False,111,1,1,False,False,False,False,110,0.0-215.0,1,1536,"[0, 2, 1]",stimuli/1111110.jpg,397257,prediction_trial,246,image-keyboard-response,
12,Pilot (test data collection),True,1,False,False,111,0,0,False,False,True,True,001,0.0-217.0,0,919,"[1, 2, 0]",stimuli/0111001.jpg,398920,prediction_trial,248,image-keyboard-response,
12,Pilot (test data collection),False,0,True,True,110,2,2,False,False,False,False,011,0.0-219.0,1,1431,[2],stimuli/2110011.jpg,400785,prediction_trial,250,image-keyboard-response,
12,Pilot (test data collection),True,1,True,True,100,1,1,False,True,False,True,010,0.0-221.0,1,1161,[1],stimuli/1100010.jpg,402433,prediction_trial,252,image-keyboard-response,
12,Pilot (test data collection),False,0,False,False,110,1,0,False,False,True,True,000,0.0-223.0,1,691,"[0, 1]",stimuli/1110000.jpg,403604,prediction_trial,254,image-keyboard-response,
12,Pilot (test data collection),True,1,True,True,100,1,1,True,True,True,True,100,0.0-225.0,1,505,[1],stimuli/1100100.jpg,404585,prediction_trial,256,image-keyboard-response,
12,Pilot (test data collection),False,0,False,False,111,0,1,False,False,False,True,100,0.0-227.0,0,1397,"[2, 1, 0]",stimuli/0111100.jpg,406408,prediction_trial,258,image-keyboard-response,
12,Pilot (test data collection),False,0,False,False,111,0,1,False,False,True,True,000,0.0-229.0,0,655,"[0, 1, 2]",stimuli/0111000.jpg,407560,prediction_trial,260,image-keyboard-response,
12,Pilot (test data collection),True,1,True,True,100,1,1,False,False,False,False,011,0.0-231.0,1,2127,[1],stimuli/1100011.jpg,410241,prediction_trial,262,image-keyboard-response,
12,Pilot (test data collection),False,0,False,True,010,1,1,False,False,False,False,110,0.0-233.0,0,1006,[1],stimuli/1010110.jpg,411889,prediction_trial,264,image-keyboard-response,
12,Pilot (test data collection),False,0,False,False,111,0,0,False,False,False,False,111,0.0-235.0,1,655,"[0, 2, 1]",stimuli/0111111.jpg,413321,prediction_trial,266,image-keyboard-response,
12,Pilot (test data collection),True,1,False,False,111,1,2,False,False,False,False,111,0.0-237.0,2,1398,"[2, 0, 1]",stimuli/1111111.jpg,415200,prediction_trial,268,image-keyboard-response,
12,Pilot (test data collection),False,0,False,False,011,2,2,False,False,False,False,011,0.0-239.0,1,1008,"[2, 1]",stimuli/2011011.jpg,416928,prediction_trial,270,image-keyboard-response,
12,Pilot (test data collection),True,1,False,False,111,2,2,False,False,True,True,110,0.0-241.0,2,1136,"[0, 2, 1]",stimuli/2111110.jpg,418754,prediction_trial,272,image-keyboard-response,
12,Pilot (test data collection),True,1,False,False,101,0,0,False,False,True,True,001,0.0-243.0,0,1744,"[2, 0]",stimuli/0101001.jpg,421041,prediction_trial,274,image-keyboard-response,
12,Pilot (test data collection),True,1,True,True,101,1,1,True,True,True,True,001,0.0-245.0,1,1053,[1],stimuli/1101001.jpg,422842,prediction_trial,276,image-keyboard-response,
12,Pilot (test data collection),False,0,False,False,011,2,1,False,False,True,True,000,0.0-247.0,2,1765,"[2, 1]",stimuli/2011000.jpg,425057,prediction_trial,278,image-keyboard-response,
12,Pilot (test data collection),True,1,False,False,111,1,2,False,False,False,False,111,0.0-249.0,2,775,"[2, 0, 1]",stimuli/1111111.jpg,426461,prediction_trial,280,image-keyboard-response,
12,Pilot (test data collection),True,1,True,True,001,0,0,True,True,True,True,000,0.0-251.0,0,1831,[0],stimuli/0001000.jpg,428774,prediction_trial,282,image-keyboard-response,
12,Pilot (test data collection),True,1,False,True,010,1,1,False,True,True,True,001,0.0-253.0,1,977,[1],stimuli/1010001.jpg,430369,prediction_trial,284,image-keyboard-response,
12,Pilot (test data collection),False,0,False,False,111,1,2,False,False,True,True,001,0.0-255.0,1,599,"[2, 1, 0]",stimuli/1111001.jpg,431634,prediction_trial,286,image-keyboard-response,
12,Pilot (test data collection),False,0,True,True,000,2,2,False,False,False,False,101,0.0-257.0,0,1983,[2],stimuli/2000101.jpg,434712,prediction_trial,288,image-keyboard-response,
12,Pilot (test data collection),True,1,False,False,111,0,0,False,False,True,True,000,0.0-259.0,0,792,"[0, 1, 2]",stimuli/0111000.jpg,436034,prediction_trial,290,image-keyboard-response,
12,Pilot (test data collection),False,0,False,False,110,1,1,False,False,False,False,110,0.0-261.0,0,909,"[1, 0]",stimuli/1110110.jpg,437578,prediction_trial,292,image-keyboard-response,
12,Pilot (test data collection),False,0,False,False,111,0,0,False,False,True,True,010,0.0-263.0,1,2163,"[2, 0, 1]",stimuli/0111010.jpg,440558,prediction_trial,294,image-keyboard-response,
12,Pilot (test data collection),True,1,True,True,100,1,1,True,True,True,True,101,0.0-265.0,1,849,[1],stimuli/1100101.jpg,442093,prediction_trial,296,image-keyboard-response,
12,Pilot (test data collection),False,0,True,True,001,0,0,False,False,False,False,110,0.0-267.0,1,647,[0],stimuli/0001110.jpg,443309,prediction_trial,298,image-keyboard-response,
12,Pilot (test data collection),True,1,True,True,010,2,2,True,True,True,True,100,0.0-269.0,2,1482,[2],stimuli/2010100.jpg,445384,prediction_trial,300,image-keyboard-response,
12,Pilot (test data collection),False,0,False,True,010,1,1,False,False,False,False,011,0.0-271.0,2,1633,[1],stimuli/1010011.jpg,447614,prediction_trial,302,image-keyboard-response,
12,Pilot (test data collection),True,1,False,False,111,0,0,False,False,True,True,001,0.0-273.0,0,2544,"[1, 2, 0]",stimuli/0111001.jpg,450654,prediction_trial,304,image-keyboard-response,
12,Pilot (test data collection),False,0,True,True,000,2,2,False,False,False,False,111,0.0-275.0,0,1375,[2],stimuli/2000111.jpg,452678,prediction_trial,306,image-keyboard-response,
12,Pilot (test data collection),True,1,False,True,010,1,1,False,True,True,True,100,0.0-277.0,1,1360,[1],stimuli/1010100.jpg,454573,prediction_trial,308,image-keyboard-response,
12,Pilot (test data collection),False,0,False,False,111,2,0,False,False,False,False,011,0.0-279.0,1,913,"[1, 0, 2]",stimuli/2111011.jpg,456048,prediction_trial,310,image-keyboard-response,
12,Pilot (test data collection),False,0,False,False,111,1,0,False,False,True,True,100,0.0-281.0,1,633,"[1, 2, 0]",stimuli/1111100.jpg,457158,prediction_trial,312,image-keyboard-response,
12,Pilot (test data collection),True,1,True,True,100,1,1,True,True,True,True,000,0.0-283.0,1,497,[1],stimuli/1100000.jpg,458126,prediction_trial,314,image-keyboard-response,
12,Pilot (test data collection),False,0,False,False,111,0,2,False,False,True,True,010,0.0-285.0,0,917,"[2, 0, 1]",stimuli/0111010.jpg,459502,prediction_trial,316,image-keyboard-response,
12,Pilot (test data collection),False,0,False,False,110,1,0,False,False,False,False,011,0.0-287.0,1,1250,"[0, 1]",stimuli/1110011.jpg,461353,prediction_trial,318,image-keyboard-response,
12,Pilot (test data collection),True,1,False,False,111,1,1,False,False,False,False,011,0.0-289.0,1,744,"[0, 2, 1]",stimuli/1111011.jpg,462553,prediction_trial,320,image-keyboard-response,
12,Pilot (test data collection),False,0,False,False,111,1,2,False,False,True,True,000,0.0-291.0,1,680,"[1, 0, 2]",stimuli/1111000.jpg,464665,prediction_trial,322,image-keyboard-response,
15,Pilot (test data collection),False,0,True,True,000,2,2,False,False,False,False,111,0.0-5.0,0,5185,[2],stimuli/2000111.jpg,119638,prediction_trial,36,image-keyboard-response,
15,Pilot (test data collection),False,0,True,True,000,1,1,False,False,False,False,111,0.0-7.0,0,1428,[1],stimuli/1000111.jpg,122126,prediction_trial,38,image-keyboard-response,
15,Pilot (test data collection),False,0,False,False,111,1,2,False,False,False,False,111,0.0-9.0,1,960,"[0, 1, 2]",stimuli/1111111.jpg,123614,prediction_trial,40,image-keyboard-response,
15,Pilot (test data collection),True,1,True,True,110,2,2,True,True,True,True,010,0.0-11.0,2,647,[2],stimuli/2110010.jpg,124800,prediction_trial,42,image-keyboard-response,
15,Pilot (test data collection),True,1,True,True,010,0,0,False,False,False,False,111,0.0-13.0,0,972,[0],stimuli/0010111.jpg,126126,prediction_trial,44,image-keyboard-response,
15,Pilot (test data collection),False,0,False,False,011,2,1,False,False,True,True,010,0.0-15.0,2,508,"[1, 2]",stimuli/2011010.jpg,127150,prediction_trial,46,image-keyboard-response,
15,Pilot (test data collection),True,1,True,True,100,1,1,True,True,True,True,100,0.0-17.0,1,541,[1],stimuli/1100100.jpg,128165,prediction_trial,48,image-keyboard-response,
15,Pilot (test data collection),True,1,True,True,100,1,1,True,True,True,True,000,0.0-19.0,1,913,[1],stimuli/1100000.jpg,129381,prediction_trial,50,image-keyboard-response,
15,Pilot (test data collection),False,0,False,False,111,0,1,False,False,True,True,011,0.0-21.0,0,1557,"[2, 1, 0]",stimuli/0111011.jpg,131078,prediction_trial,52,image-keyboard-response,
15,Pilot (test data collection),True,1,False,False,110,1,1,False,False,True,True,100,0.0-23.0,1,589,"[0, 1]",stimuli/1110100.jpg,131902,prediction_trial,54,image-keyboard-response,
15,Pilot (test data collection),False,0,False,False,110,0,1,False,False,True,True,011,0.0-25.0,0,901,"[1, 0]",stimuli/0110011.jpg,133095,prediction_trial,56,image-keyboard-response,
15,Pilot (test data collection),True,1,False,True,010,1,1,False,False,False,False,110,0.0-27.0,1,1004,[1],stimuli/1010110.jpg,134246,prediction_trial,58,image-keyboard-response,
15,Pilot (test data collection),True,1,False,False,111,1,1,False,False,True,True,101,0.0-29.0,1,612,"[2, 0, 1]",stimuli/1111101.jpg,135278,prediction_trial,60,image-keyboard-response,
15,Pilot (test data collection),False,0,False,False,111,1,2,False,False,False,False,110,0.0-31.0,1,876,"[1, 2, 0]",stimuli/1111110.jpg,136429,prediction_trial,62,image-keyboard-response,
15,Pilot (test data collection),False,0,True,True,000,0,0,False,False,False,False,101,0.0-33.0,2,869,[0],stimuli/0000101.jpg,137463,prediction_trial,64,image-keyboard-response,
15,Pilot (test data collection),False,0,False,False,111,0,1,False,False,False,False,110,0.0-35.0,0,1236,"[1, 2, 0]",stimuli/0111110.jpg,138846,prediction_trial,66,image-keyboard-response,
15,Pilot (test data collection),False,0,False,False,111,1,0,False,False,False,False,111,0.0-37.0,1,576,"[0, 1, 2]",stimuli/1111111.jpg,139638,prediction_trial,68,image-keyboard-response,
15,Pilot (test data collection),True,1,False,False,111,0,0,False,False,True,True,010,0.0-39.0,0,1029,"[0, 1, 2]",stimuli/0111010.jpg,141342,prediction_trial,70,image-keyboard-response,
15,Pilot (test data collection),False,0,False,False,101,0,2,False,False,True,True,000,0.0-41.0,0,715,"[2, 0]",stimuli/0101000.jpg,142294,prediction_trial,72,image-keyboard-response,
15,Pilot (test data collection),False,0,False,False,111,0,0,False,False,True,True,001,0.0-43.0,1,803,"[1, 2, 0]",stimuli/0111001.jpg,143238,prediction_trial,74,image-keyboard-response,
15,Pilot (test data collection),True,1,True,True,001,1,1,True,True,True,True,100,0.0-45.0,1,748,[1],stimuli/1001100.jpg,144429,prediction_trial,76,image-keyboard-response,
15,Pilot (test data collection),False,0,True,True,010,0,0,False,True,False,True,100,0.0-47.0,1,2980,[0],stimuli/0010100.jpg,147670,prediction_trial,78,image-keyboard-response,
15,Pilot (test data collection),False,0,False,False,111,2,1,False,False,False,False,101,0.0-49.0,0,2972,"[1, 2, 0]",stimuli/2111101.jpg,151358,prediction_trial,80,image-keyboard-response,
15,Pilot (test data collection),False,0,True,True,010,2,2,False,False,False,False,111,0.0-51.0,1,1916,[2],stimuli/2010111.jpg,153566,prediction_trial,82,image-keyboard-response,
15,Pilot (test data collection),True,1,False,False,111,1,1,False,False,True,True,100,0.0-53.0,1,1020,"[2, 0, 1]",stimuli/1111100.jpg,155070,prediction_trial,84,image-keyboard-response,
15,Pilot (test data collection),False,0,False,False,111,0,0,False,False,False,False,110,0.0-55.0,1,993,"[1, 2, 0]",stimuli/0111110.jpg,156253,prediction_trial,86,image-keyboard-response,
15,Pilot (test data collection),True,1,False,False,111,2,2,False,False,True,True,000,0.0-57.0,2,581,"[2, 1, 0]",stimuli/2111000.jpg,156997,prediction_trial,88,image-keyboard-response,
15,Pilot (test data collection),False,0,False,False,111,2,0,False,False,True,True,010,0.0-59.0,2,630,"[1, 2, 0]",stimuli/2111010.jpg,157813,prediction_trial,90,image-keyboard-response,
15,Pilot (test data collection),True,1,False,False,111,2,1,False,False,False,True,001,0.0-61.0,1,517,"[0, 1, 2]",stimuli/2111001.jpg,158677,prediction_trial,92,image-keyboard-response,
15,Pilot (test data collection),True,1,False,False,111,1,2,False,False,True,True,100,0.0-63.0,2,344,"[2, 0, 1]",stimuli/1111100.jpg,159301,prediction_trial,94,image-keyboard-response,
15,Pilot (test data collection),True,1,False,False,111,1,1,False,False,True,True,000,0.0-65.0,1,373,"[1, 0, 2]",stimuli/1111000.jpg,160141,prediction_trial,96,image-keyboard-response,
15,Pilot (test data collection),False,0,True,True,001,0,0,False,True,False,True,100,0.0-67.0,1,1117,[0],stimuli/0001100.jpg,161549,prediction_trial,98,image-keyboard-response,
15,Pilot (test data collection),True,1,False,False,111,2,0,False,False,False,False,111,0.0-69.0,0,813,"[1, 2, 0]",stimuli/2111111.jpg,163285,prediction_trial,100,image-keyboard-response,
15,Pilot (test data collection),False,0,False,False,111,0,2,False,False,False,True,100,0.0-71.0,0,829,"[2, 0, 1]",stimuli/0111100.jpg,164389,prediction_trial,102,image-keyboard-response,
15,Pilot (test data collection),True,1,True,True,010,0,0,True,True,True,True,011,0.0-73.0,0,738,[0],stimuli/0010011.jpg,165222,prediction_trial,104,image-keyboard-response,
15,Pilot (test data collection),False,0,True,True,100,2,2,False,False,False,False,011,0.0-75.0,0,1171,[2],stimuli/2100011.jpg,166605,prediction_trial,106,image-keyboard-response,
15,Pilot (test data collection),False,0,False,False,111,2,1,False,False,True,True,010,0.0-77.0,2,800,"[1, 2, 0]",stimuli/2111010.jpg,167541,prediction_trial,108,image-keyboard-response,
15,Pilot (test data collection),False,0,False,False,111,0,1,False,False,True,True,000,0.0-79.0,0,644,"[1, 0, 2]",stimuli/0111000.jpg,168341,prediction_trial,110,image-keyboard-response,
15,Pilot (test data collection),False,0,False,False,110,1,0,False,False,True,True,101,0.0-81.0,1,782,"[1, 0]",stimuli/1110101.jpg,169245,prediction_trial,112,image-keyboard-response,
15,Pilot (test data collection),False,0,False,False,111,2,1,False,False,True,True,000,0.0-83.0,2,610,"[2, 1, 0]",stimuli/2111000.jpg,170053,prediction_trial,114,image-keyboard-response,
15,Pilot (test data collection),True,1,False,True,001,2,2,False,False,False,False,111,0.0-85.0,2,1381,[2],stimuli/2001111.jpg,171709,prediction_trial,116,image-keyboard-response,
15,Pilot (test data collection),False,0,False,False,111,2,0,False,False,True,True,000,0.0-87.0,2,953,"[2, 1, 0]",stimuli/2111000.jpg,172916,prediction_trial,118,image-keyboard-response,
15,Pilot (test data collection),True,1,False,True,010,1,1,False,False,False,False,011,0.0-89.0,1,2189,[1],stimuli/1010011.jpg,175253,prediction_trial,120,image-keyboard-response,
15,Pilot (test data collection),True,1,False,False,111,2,1,False,False,False,False,011,0.0-91.0,1,996,"[1, 2, 0]",stimuli/2111011.jpg,176372,prediction_trial,122,image-keyboard-response,
15,Pilot (test data collection),True,1,False,False,111,1,1,False,False,True,True,001,0.0-93.0,1,621,"[1, 0, 2]",stimuli/1111001.jpg,177100,prediction_trial,124,image-keyboard-response,
15,Pilot (test data collection),False,0,False,False,111,0,1,False,False,False,False,101,0.0-95.0,0,1148,"[2, 1, 0]",stimuli/0111101.jpg,178349,prediction_trial,126,image-keyboard-response,
15,Pilot (test data collection),True,1,True,True,000,0,0,False,True,False,True,100,0.0-97.0,0,1940,[0],stimuli/0000100.jpg,180365,prediction_trial,128,image-keyboard-response,
15,Pilot (test data collection),False,0,False,False,111,0,1,False,False,True,True,000,0.0-99.0,0,684,"[1, 0, 2]",stimuli/0111000.jpg,181164,prediction_trial,130,image-keyboard-response,
15,Pilot (test data collection),False,0,False,False,111,1,2,False,False,False,False,011,0.0-101.0,1,837,"[1, 2, 0]",stimuli/1111011.jpg,182076,prediction_trial,132,image-keyboard-response,
15,Pilot (test data collection),False,0,False,False,111,1,2,False,False,True,True,000,0.0-103.0,1,657,"[1, 0, 2]",stimuli/1111000.jpg,182892,prediction_trial,134,image-keyboard-response,
15,Pilot (test data collection),True,1,True,True,000,1,1,True,True,True,True,000,0.0-105.0,1,1096,[1],stimuli/1000000.jpg,184068,prediction_trial,136,image-keyboard-response,
15,Pilot (test data collection),False,0,False,False,011,1,2,False,False,False,False,011,0.0-107.0,1,725,"[1, 2]",stimuli/1011011.jpg,184941,prediction_trial,138,image-keyboard-response,
15,Pilot (test data collection),False,0,False,False,111,0,0,False,False,False,False,111,0.0-109.0,1,867,"[1, 0, 2]",stimuli/0111111.jpg,185973,prediction_trial,140,image-keyboard-response,
15,Pilot (test data collection),True,1,False,False,111,1,1,False,False,False,False,011,0.0-111.0,1,592,"[1, 2, 0]",stimuli/1111011.jpg,186717,prediction_trial,142,image-keyboard-response,
15,Pilot (test data collection),False,0,False,False,111,1,0,False,False,True,True,001,0.0-113.0,2,1775,"[1, 0, 2]",stimuli/1111001.jpg,188588,prediction_trial,144,image-keyboard-response,
15,Pilot (test data collection),False,0,True,True,000,2,2,False,False,False,False,011,0.0-115.0,1,3517,[2],stimuli/2000011.jpg,192214,prediction_trial,146,image-keyboard-response,
15,Pilot (test data collection),False,0,False,False,111,0,2,False,False,True,True,001,0.0-117.0,0,1206,"[1, 2, 0]",stimuli/0111001.jpg,193470,prediction_trial,148,image-keyboard-response,
15,Pilot (test data collection),True,1,False,False,111,2,0,False,False,False,False,101,0.0-119.0,0,1594,"[1, 2, 0]",stimuli/2111101.jpg,195126,prediction_trial,150,image-keyboard-response,
15,Pilot (test data collection),True,1,True,True,101,1,1,True,True,True,True,000,0.0-121.0,1,1059,[1],stimuli/1101000.jpg,196228,prediction_trial,152,image-keyboard-response,
15,Pilot (test data collection),True,1,True,True,010,2,2,True,True,True,True,000,0.0-123.0,2,1644,[2],stimuli/2010000.jpg,197980,prediction_trial,154,image-keyboard-response,
15,Pilot (test data collection),True,1,False,False,101,2,0,False,False,False,False,101,0.0-125.0,0,1149,"[0, 2]",stimuli/2101101.jpg,199244,prediction_trial,156,image-keyboard-response,
15,Pilot (test data collection),True,1,True,True,100,1,1,True,True,True,True,101,0.0-127.0,1,1037,[1],stimuli/1100101.jpg,200364,prediction_trial,158,image-keyboard-response,
15,Pilot (test data collection),False,0,False,False,111,0,1,False,False,False,True,100,0.0-129.0,0,976,"[2, 0, 1]",stimuli/0111100.jpg,201420,prediction_trial,160,image-keyboard-response,
15,Pilot (test data collection),False,0,False,False,101,2,0,False,False,False,False,011,0.0-131.0,2,2021,"[0, 2]",stimuli/2101011.jpg,204571,prediction_trial,162,image-keyboard-response,
15,Pilot (test data collection),False,0,True,True,100,1,1,False,False,False,False,011,0.0-133.0,0,2885,[1],stimuli/1100011.jpg,207604,prediction_trial,164,image-keyboard-response,
15,Pilot (test data collection),True,1,True,True,000,2,2,False,True,False,True,001,0.0-135.0,2,869,[2],stimuli/2000001.jpg,208556,prediction_trial,166,image-keyboard-response,
15,Pilot (test data collection),True,1,False,True,010,1,1,False,True,True,True,001,0.0-137.0,1,852,[1],stimuli/1010001.jpg,209516,prediction_trial,168,image-keyboard-response,
15,Pilot (test data collection),False,0,False,False,111,2,1,False,False,True,True,100,0.0-139.0,2,853,"[1, 0, 2]",stimuli/2111100.jpg,210444,prediction_trial,170,image-keyboard-response,
15,Pilot (test data collection),False,0,False,False,111,0,0,False,False,False,True,100,0.0-141.0,2,1269,"[2, 0, 1]",stimuli/0111100.jpg,211820,prediction_trial,172,image-keyboard-response,
15,Pilot (test data collection),False,0,False,False,111,2,1,False,False,True,True,100,0.0-143.0,2,617,"[1, 0, 2]",stimuli/2111100.jpg,213131,prediction_trial,174,image-keyboard-response,
15,Pilot (test data collection),False,0,False,False,111,1,2,False,False,True,True,000,0.0-145.0,1,744,"[1, 0, 2]",stimuli/1111000.jpg,214028,prediction_trial,176,image-keyboard-response,
15,Pilot (test data collection),True,1,False,False,111,1,0,False,False,True,True,100,0.0-147.0,0,833,"[2, 0, 1]",stimuli/1111100.jpg,214956,prediction_trial,178,image-keyboard-response,
15,Pilot (test data collection),False,0,False,False,111,0,1,False,False,True,True,000,0.0-149.0,0,1070,"[1, 0, 2]",stimuli/0111000.jpg,216068,prediction_trial,180,image-keyboard-response,
15,Pilot (test data collection),False,0,False,False,111,0,1,False,False,False,False,101,0.0-151.0,0,860,"[2, 1, 0]",stimuli/0111101.jpg,216947,prediction_trial,182,image-keyboard-response,
15,Pilot (test data collection),True,1,False,False,111,0,0,False,False,True,True,001,0.0-153.0,0,607,"[1, 2, 0]",stimuli/0111001.jpg,217635,prediction_trial,184,image-keyboard-response,
15,Pilot (test data collection),True,1,False,False,110,0,0,False,False,False,True,100,0.0-155.0,0,637,"[0, 1]",stimuli/0110100.jpg,218396,prediction_trial,186,image-keyboard-response,
15,Pilot (test data collection),True,1,False,False,011,2,1,False,False,False,False,011,0.0-157.0,1,1094,"[2, 1]",stimuli/2011011.jpg,219533,prediction_trial,188,image-keyboard-response,
15,Pilot (test data collection),True,1,False,True,100,0,0,False,False,False,False,111,0.0-159.0,0,1074,[0],stimuli/0100111.jpg,220724,prediction_trial,190,image-keyboard-response,
15,Pilot (test data collection),False,0,True,True,100,1,1,False,True,False,True,010,0.0-161.0,0,2036,[1],stimuli/1100010.jpg,222899,prediction_trial,192,image-keyboard-response,
15,Pilot (test data collection),False,0,True,True,010,2,2,False,False,False,False,101,0.0-163.0,0,1802,[2],stimuli/2010101.jpg,225675,prediction_trial,194,image-keyboard-response,
15,Pilot (test data collection),True,1,True,True,100,2,2,True,True,True,True,000,0.0-165.0,2,979,[2],stimuli/2100000.jpg,226772,prediction_trial,196,image-keyboard-response,
15,Pilot (test data collection),False,0,False,False,110,1,0,False,False,True,True,001,0.0-167.0,1,708,"[1, 0]",stimuli/1110001.jpg,227635,prediction_trial,198,image-keyboard-response,
15,Pilot (test data collection),False,0,False,False,111,0,1,False,False,True,True,010,0.0-169.0,0,645,"[0, 1, 2]",stimuli/0111010.jpg,228372,prediction_trial,200,image-keyboard-response,
15,Pilot (test data collection),False,0,False,False,111,0,1,False,False,True,True,011,0.0-171.0,0,893,"[2, 1, 0]",stimuli/0111011.jpg,229332,prediction_trial,202,image-keyboard-response,
15,Pilot (test data collection),True,1,False,True,001,2,2,False,True,False,True,001,0.0-173.0,2,788,[2],stimuli/2001001.jpg,230947,prediction_trial,204,image-keyboard-response,
15,Pilot (test data collection),True,1,False,False,110,0,0,False,False,True,True,001,0.0-175.0,0,573,"[0, 1]",stimuli/0110001.jpg,231651,prediction_trial,206,image-keyboard-response,
15,Pilot (test data collection),True,1,False,False,110,1,1,False,False,False,False,011,0.0-177.0,1,971,"[0, 1]",stimuli/1110011.jpg,232659,prediction_trial,208,image-keyboard-response,
15,Pilot (test data collection),False,0,True,True,100,1,1,False,False,False,False,111,0.0-179.0,0,949,[1],stimuli/1100111.jpg,233683,prediction_trial,210,image-keyboard-response,
15,Pilot (test data collection),True,1,False,False,101,0,0,False,False,False,False,101,0.0-181.0,0,710,"[0, 2]",stimuli/0101101.jpg,234443,prediction_trial,212,image-keyboard-response,
15,Pilot (test data collection),False,0,False,False,111,2,1,False,False,False,True,001,0.0-183.0,2,1741,"[0, 1, 2]",stimuli/2111001.jpg,236251,prediction_trial,214,image-keyboard-response,
15,Pilot (test data collection),False,0,False,False,110,0,0,False,False,False,False,111,0.0-185.0,1,589,"[1, 0]",stimuli/0110111.jpg,237475,prediction_trial,216,image-keyboard-response,
15,Pilot (test data collection),True,1,False,False,111,0,0,False,False,True,True,011,0.0-187.0,0,450,"[2, 1, 0]",stimuli/0111011.jpg,238531,prediction_trial,218,image-keyboard-response,
15,Pilot (test data collection),True,1,False,False,111,1,0,False,False,False,True,010,0.0-189.0,0,519,"[0, 1, 2]",stimuli/1111010.jpg,239076,prediction_trial,220,image-keyboard-response,
15,Pilot (test data collection),False,0,False,True,010,1,1,False,True,True,True,101,0.0-191.0,0,18,[1],stimuli/1010101.jpg,239483,prediction_trial,222,image-keyboard-response,
15,Pilot (test data collection),False,0,True,True,110,2,2,False,False,False,False,101,0.0-193.0,0,703,[2],stimuli/2110101.jpg,240719,prediction_trial,224,image-keyboard-response,
15,Pilot (test data collection),True,1,True,True,101,1,1,False,False,False,False,110,0.0-195.0,1,594,[1],stimuli/1101110.jpg,241443,prediction_trial,226,image-keyboard-response,
15,Pilot (test data collection),True,1,False,True,100,0,0,False,True,True,True,011,0.0-197.0,0,445,[0],stimuli/0100011.jpg,241948,prediction_trial,228,image-keyboard-response,
15,Pilot (test data collection),True,1,True,True,010,0,0,True,True,True,True,000,0.0-199.0,0,781,[0],stimuli/0010000.jpg,242828,prediction_trial,230,image-keyboard-response,
15,Pilot (test data collection),False,0,False,False,111,2,0,False,False,False,False,011,0.0-201.0,1,961,"[1, 2, 0]",stimuli/2111011.jpg,243875,prediction_trial,232,image-keyboard-response,
15,Pilot (test data collection),True,1,True,True,110,2,2,True,True,True,True,100,0.0-203.0,2,749,[2],stimuli/2110100.jpg,244699,prediction_trial,234,image-keyboard-response,
15,Pilot (test data collection),False,0,False,False,111,0,1,False,False,False,False,111,0.0-205.0,0,840,"[1, 0, 2]",stimuli/0111111.jpg,245595,prediction_trial,236,image-keyboard-response,
15,Pilot (test data collection),True,1,True,True,010,2,2,True,True,True,True,100,0.0-207.0,2,860,[2],stimuli/2010100.jpg,246499,prediction_trial,238,image-keyboard-response,
15,Pilot (test data collection),True,1,False,False,110,0,0,False,False,True,True,000,0.0-209.0,0,581,"[0, 1]",stimuli/0110000.jpg,247106,prediction_trial,240,image-keyboard-response,
15,Pilot (test data collection),False,0,False,False,111,0,1,False,False,False,False,110,0.0-211.0,0,673,"[1, 2, 0]",stimuli/0111110.jpg,247954,prediction_trial,242,image-keyboard-response,
15,Pilot (test data collection),True,1,False,False,111,0,0,False,False,True,True,010,0.0-213.0,0,679,"[0, 1, 2]",stimuli/0111010.jpg,248723,prediction_trial,244,image-keyboard-response,
15,Pilot (test data collection),True,1,True,True,001,0,0,True,True,True,True,001,0.0-215.0,0,625,[0],stimuli/0001001.jpg,249386,prediction_trial,246,image-keyboard-response,
15,Pilot (test data collection),True,1,True,True,100,2,2,True,True,True,True,100,0.0-217.0,2,509,[2],stimuli/2100100.jpg,250258,prediction_trial,248,image-keyboard-response,
15,Pilot (test data collection),False,0,False,False,011,2,1,False,False,False,True,001,0.0-219.0,2,957,"[2, 1]",stimuli/2011001.jpg,251482,prediction_trial,250,image-keyboard-response,
15,Pilot (test data collection),False,0,False,False,111,1,0,False,False,False,True,010,0.0-221.0,1,1537,"[0, 1, 2]",stimuli/1111010.jpg,253227,prediction_trial,252,image-keyboard-response,
