workerid,proliferate.condition,accuracy,accuracy_bool,alter_ball_visible,alter_can_infer,alter_occluders,ball_pos,character_choice,collective_ball_visible,collective_can_infer,ego_ball_visible,ego_can_infer,ego_occluders,internal_node_id,response,rt,search_locations,stimulus,time_elapsed,trial,trial_index,trial_type,error
133,Experiment 2,False,0,False,False,111,2,2,False,False,True,True,010,0.0-5.0,0,5475,"[2, 0, 1]",stimuli/2111010.jpg,140858,prediction_trial,30,image-keyboard-response,
133,Experiment 2,False,0,True,True,100,2,2,False,False,False,False,011,0.0-7.0,1,3850,[2],stimuli/2100011.jpg,146099,prediction_trial,32,image-keyboard-response,
133,Experiment 2,True,1,True,True,000,0,0,False,False,False,False,101,0.0-9.0,0,2094,[0],stimuli/0000101.jpg,148731,prediction_trial,34,image-keyboard-response,
133,Experiment 2,True,1,True,True,001,0,0,False,True,False,True,100,0.0-11.0,0,3653,[0],stimuli/0001100.jpg,153194,prediction_trial,36,image-keyboard-response,
133,Experiment 2,True,1,True,True,011,0,0,True,True,True,True,010,0.0-13.0,0,994,[0],stimuli/0011010.jpg,155041,prediction_trial,38,image-keyboard-response,
133,Experiment 2,True,1,True,True,101,1,1,True,True,True,True,100,0.0-15.0,1,915,[1],stimuli/1101100.jpg,156694,prediction_trial,40,image-keyboard-response,
133,Experiment 2,True,1,False,False,011,1,2,False,False,False,False,011,0.0-17.0,2,2541,"[1, 2]",stimuli/1011011.jpg,159985,prediction_trial,42,image-keyboard-response,
133,Experiment 2,False,0,False,False,110,1,0,False,False,True,True,000,0.0-19.0,1,1721,"[1, 0]",stimuli/1110000.jpg,162562,prediction_trial,44,image-keyboard-response,
133,Experiment 2,True,1,True,True,001,0,0,False,False,False,False,111,0.0-21.0,0,3375,[0],stimuli/0001111.jpg,166586,prediction_trial,46,image-keyboard-response,
133,Experiment 2,False,0,True,True,101,1,1,False,False,False,False,110,0.0-23.0,0,3538,[1],stimuli/1101110.jpg,170922,prediction_trial,48,image-keyboard-response,
133,Experiment 2,False,0,False,False,110,0,1,False,False,False,False,111,0.0-25.0,0,1941,"[1, 0]",stimuli/0110111.jpg,173530,prediction_trial,50,image-keyboard-response,
133,Experiment 2,True,1,True,True,101,1,1,False,True,False,True,010,0.0-27.0,1,2917,[1],stimuli/1101010.jpg,177058,prediction_trial,52,image-keyboard-response,
133,Experiment 2,True,1,True,True,100,2,2,True,True,True,True,100,0.0-29.0,2,1122,[2],stimuli/2100100.jpg,178851,prediction_trial,54,image-keyboard-response,
133,Experiment 2,False,0,False,False,101,0,0,False,False,False,False,110,0.0-31.0,1,1743,"[2, 0]",stimuli/0101110.jpg,181315,prediction_trial,56,image-keyboard-response,
133,Experiment 2,False,0,False,False,101,2,2,False,False,False,False,111,0.0-33.0,0,1933,"[0, 2]",stimuli/2101111.jpg,183818,prediction_trial,58,image-keyboard-response,
133,Experiment 2,False,0,False,False,111,1,1,False,False,False,False,111,0.0-35.0,0,1089,"[1, 0, 2]",stimuli/1111111.jpg,185530,prediction_trial,60,image-keyboard-response,
133,Experiment 2,True,1,True,True,110,2,2,True,True,True,True,000,0.0-37.0,2,1110,[2],stimuli/2110000.jpg,187234,prediction_trial,62,image-keyboard-response,
133,Experiment 2,False,0,False,False,011,2,2,False,False,False,False,101,0.0-39.0,0,3487,"[1, 2]",stimuli/2011101.jpg,191578,prediction_trial,64,image-keyboard-response,
133,Experiment 2,True,1,True,True,100,1,1,False,False,False,False,111,0.0-41.0,1,1553,[1],stimuli/1100111.jpg,193803,prediction_trial,66,image-keyboard-response,
133,Experiment 2,True,1,False,True,010,1,1,False,True,True,True,101,0.0-43.0,1,1829,[1],stimuli/1010101.jpg,196298,prediction_trial,68,image-keyboard-response,
133,Experiment 2,True,1,False,True,100,0,0,False,True,True,True,001,0.0-45.0,0,2333,[0],stimuli/0100001.jpg,199204,prediction_trial,70,image-keyboard-response,
133,Experiment 2,True,1,True,True,110,2,2,False,False,False,False,011,0.0-47.0,2,1628,[2],stimuli/2110011.jpg,201496,prediction_trial,72,image-keyboard-response,
133,Experiment 2,True,1,True,True,100,1,1,False,True,False,True,010,0.0-49.0,1,3008,[1],stimuli/1100010.jpg,205194,prediction_trial,74,image-keyboard-response,
133,Experiment 2,False,0,True,True,001,0,0,False,False,False,False,101,0.0-51.0,2,2244,[0],stimuli/0001101.jpg,208154,prediction_trial,76,image-keyboard-response,
133,Experiment 2,True,1,False,False,110,1,0,False,False,False,False,011,0.0-53.0,0,1923,"[0, 1]",stimuli/1110011.jpg,210871,prediction_trial,78,image-keyboard-response,
133,Experiment 2,False,0,True,True,001,1,1,False,False,False,False,110,0.0-55.0,0,1335,[1],stimuli/1001110.jpg,212937,prediction_trial,80,image-keyboard-response,
133,Experiment 2,True,1,False,False,101,0,0,False,False,False,False,101,0.0-57.0,0,1850,"[2, 0]",stimuli/0101101.jpg,215385,prediction_trial,82,image-keyboard-response,
133,Experiment 2,False,0,False,True,010,1,1,False,False,False,False,110,0.0-59.0,0,2286,[1],stimuli/1010110.jpg,218322,prediction_trial,84,image-keyboard-response,
133,Experiment 2,True,1,True,True,001,1,1,False,False,False,False,111,0.0-61.0,1,2523,[1],stimuli/1001111.jpg,221422,prediction_trial,86,image-keyboard-response,
133,Experiment 2,False,0,True,True,001,1,1,False,False,False,False,011,0.0-63.0,2,2723,[1],stimuli/1001011.jpg,224755,prediction_trial,88,image-keyboard-response,
133,Experiment 2,False,0,False,False,111,1,2,False,False,False,False,110,0.0-65.0,1,2245,"[2, 1, 0]",stimuli/1111110.jpg,227618,prediction_trial,90,image-keyboard-response,
133,Experiment 2,False,0,False,False,111,2,1,False,False,True,True,110,0.0-67.0,2,2322,"[1, 2, 0]",stimuli/2111110.jpg,234099,prediction_trial,92,image-keyboard-response,
133,Experiment 2,True,1,False,False,111,0,0,False,False,True,True,011,0.0-69.0,0,1218,"[1, 0, 2]",stimuli/0111011.jpg,235873,prediction_trial,94,image-keyboard-response,
133,Experiment 2,True,1,False,False,110,0,0,False,False,True,True,000,0.0-71.0,0,1856,"[0, 1]",stimuli/0110000.jpg,238497,prediction_trial,96,image-keyboard-response,
133,Experiment 2,True,1,False,True,010,1,1,False,True,True,True,000,0.0-73.0,1,1444,[1],stimuli/1010000.jpg,240592,prediction_trial,98,image-keyboard-response,
133,Experiment 2,True,1,True,True,101,1,1,True,True,True,True,001,0.0-75.0,1,1323,[1],stimuli/1101001.jpg,242534,prediction_trial,100,image-keyboard-response,
133,Experiment 2,True,1,True,True,000,0,0,True,True,True,True,000,0.0-77.0,0,1107,[0],stimuli/0000000.jpg,244232,prediction_trial,102,image-keyboard-response,
133,Experiment 2,True,1,True,True,000,2,2,False,True,False,True,001,0.0-79.0,2,1063,[2],stimuli/2000001.jpg,245914,prediction_trial,104,image-keyboard-response,
133,Experiment 2,True,1,True,True,011,0,0,False,False,False,False,110,0.0-81.0,0,3272,[0],stimuli/0011110.jpg,249954,prediction_trial,106,image-keyboard-response,
133,Experiment 2,False,0,True,True,000,2,2,False,False,False,False,011,0.0-83.0,1,2643,[2],stimuli/2000011.jpg,253215,prediction_trial,108,image-keyboard-response,
133,Experiment 2,False,0,True,True,110,2,2,False,False,False,False,101,0.0-85.0,0,2118,[2],stimuli/2110101.jpg,256074,prediction_trial,110,image-keyboard-response,
133,Experiment 2,False,0,False,False,011,1,2,False,False,True,True,000,0.0-87.0,1,1285,"[1, 2]",stimuli/1011000.jpg,257962,prediction_trial,112,image-keyboard-response,
133,Experiment 2,True,1,False,True,100,0,0,False,True,False,True,100,0.0-89.0,0,1924,[0],stimuli/0100100.jpg,260418,prediction_trial,114,image-keyboard-response,
133,Experiment 2,True,1,True,True,011,0,0,True,True,True,True,011,0.0-91.0,0,828,[0],stimuli/0011011.jpg,261970,prediction_trial,116,image-keyboard-response,
133,Experiment 2,True,1,False,True,100,0,0,False,True,True,True,000,0.0-93.0,0,1064,[0],stimuli/0100000.jpg,263605,prediction_trial,118,image-keyboard-response,
133,Experiment 2,False,0,False,False,101,2,0,False,False,True,True,100,0.0-95.0,2,1116,"[0, 2]",stimuli/2101100.jpg,265258,prediction_trial,120,image-keyboard-response,
133,Experiment 2,True,1,True,True,000,1,1,True,True,True,True,101,0.0-97.0,1,862,[1],stimuli/1000101.jpg,266706,prediction_trial,122,image-keyboard-response,
133,Experiment 2,False,0,False,False,011,2,1,False,False,False,True,001,0.0-99.0,2,2405,"[2, 1]",stimuli/2011001.jpg,269706,prediction_trial,124,image-keyboard-response,
133,Experiment 2,False,0,True,True,010,0,0,False,False,False,False,110,0.0-101.0,1,1778,[0],stimuli/0010110.jpg,272042,prediction_trial,126,image-keyboard-response,
133,Experiment 2,True,1,False,False,011,1,1,False,False,False,True,010,0.0-103.0,1,2914,"[2, 1]",stimuli/1011010.jpg,275511,prediction_trial,128,image-keyboard-response,
133,Experiment 2,False,0,False,True,100,0,0,False,False,False,False,111,0.0-105.0,1,1565,[0],stimuli/0100111.jpg,277858,prediction_trial,130,image-keyboard-response,
133,Experiment 2,False,0,True,True,010,2,2,False,False,False,False,111,0.0-107.0,1,2071,[2],stimuli/2010111.jpg,280410,prediction_trial,132,image-keyboard-response,
133,Experiment 2,True,1,False,False,110,1,1,False,False,True,True,100,0.0-109.0,1,1588,"[1, 0]",stimuli/1110100.jpg,282488,prediction_trial,134,image-keyboard-response,
133,Experiment 2,True,1,True,True,001,1,1,True,True,True,True,101,0.0-111.0,1,773,[1],stimuli/1001101.jpg,283778,prediction_trial,136,image-keyboard-response,
133,Experiment 2,False,0,True,True,100,1,1,False,False,False,False,011,0.0-113.0,2,2356,[1],stimuli/1100011.jpg,286551,prediction_trial,138,image-keyboard-response,
133,Experiment 2,True,1,False,True,001,2,2,False,True,True,True,000,0.0-115.0,2,1102,[2],stimuli/2001000.jpg,288115,prediction_trial,140,image-keyboard-response,
133,Experiment 2,True,1,True,True,000,2,2,True,True,True,True,000,0.0-117.0,2,627,[2],stimuli/2000000.jpg,289213,prediction_trial,142,image-keyboard-response,
133,Experiment 2,True,1,False,False,110,0,0,False,False,True,True,001,0.0-119.0,0,1153,"[0, 1]",stimuli/0110001.jpg,290920,prediction_trial,144,image-keyboard-response,
133,Experiment 2,True,1,False,False,101,0,0,False,False,True,True,001,0.0-121.0,0,1387,"[0, 2]",stimuli/0101001.jpg,292800,prediction_trial,146,image-keyboard-response,
133,Experiment 2,True,1,True,True,000,1,1,False,True,False,True,010,0.0-123.0,1,1321,[1],stimuli/1000010.jpg,294643,prediction_trial,148,image-keyboard-response,
133,Experiment 2,True,1,True,True,010,0,0,False,True,False,True,100,0.0-125.0,0,2439,[0],stimuli/0010100.jpg,297839,prediction_trial,150,image-keyboard-response,
133,Experiment 2,True,1,False,True,001,2,2,False,True,False,True,001,0.0-127.0,2,1137,[2],stimuli/2001001.jpg,299618,prediction_trial,152,image-keyboard-response,
133,Experiment 2,False,0,False,False,101,0,2,False,False,True,True,000,0.0-129.0,0,1389,"[0, 2]",stimuli/0101000.jpg,301609,prediction_trial,154,image-keyboard-response,
133,Experiment 2,False,0,True,True,000,1,1,False,False,False,False,110,0.0-131.0,0,1806,[1],stimuli/1000110.jpg,303913,prediction_trial,156,image-keyboard-response,
133,Experiment 2,True,1,False,False,011,2,2,False,False,True,True,100,0.0-133.0,2,1313,"[2, 1]",stimuli/2011100.jpg,305714,prediction_trial,158,image-keyboard-response,
133,Experiment 2,False,0,True,True,100,2,2,False,False,False,False,111,0.0-135.0,1,2812,[2],stimuli/2100111.jpg,309114,prediction_trial,160,image-keyboard-response,
133,Experiment 2,False,0,False,False,111,0,2,False,False,True,True,001,0.0-137.0,0,1404,"[1, 0, 2]",stimuli/0111001.jpg,311112,prediction_trial,162,image-keyboard-response,
133,Experiment 2,True,1,True,True,010,0,0,False,False,False,False,101,0.0-139.0,0,2303,[0],stimuli/0010101.jpg,314033,prediction_trial,164,image-keyboard-response,
133,Experiment 2,False,0,False,False,011,1,2,False,False,True,True,100,0.0-141.0,1,1231,"[1, 2]",stimuli/1011100.jpg,315889,prediction_trial,166,image-keyboard-response,
133,Experiment 2,True,1,False,True,100,0,0,False,True,True,True,010,0.0-143.0,0,1757,[0],stimuli/0100010.jpg,318193,prediction_trial,168,image-keyboard-response,
133,Experiment 2,True,1,True,True,001,1,1,False,True,False,True,010,0.0-145.0,1,2869,[1],stimuli/1001010.jpg,321655,prediction_trial,170,image-keyboard-response,
133,Experiment 2,True,1,False,False,011,1,1,False,False,False,False,110,0.0-147.0,1,2582,"[1, 2]",stimuli/1011110.jpg,324889,prediction_trial,172,image-keyboard-response,
133,Experiment 2,True,1,False,False,111,2,2,False,False,False,True,001,0.0-149.0,2,3183,"[1, 2, 0]",stimuli/2111001.jpg,328626,prediction_trial,174,image-keyboard-response,
133,Experiment 2,False,0,True,True,000,2,2,False,False,False,False,111,0.0-151.0,1,1239,[2],stimuli/2000111.jpg,330977,prediction_trial,176,image-keyboard-response,
133,Experiment 2,True,1,False,True,010,1,1,False,False,False,False,111,0.0-153.0,1,1319,[1],stimuli/1010111.jpg,332803,prediction_trial,178,image-keyboard-response,
133,Experiment 2,True,1,True,True,011,0,0,True,True,True,True,000,0.0-155.0,0,880,[0],stimuli/0011000.jpg,334345,prediction_trial,180,image-keyboard-response,
133,Experiment 2,False,0,True,True,101,1,1,False,False,False,False,111,0.0-157.0,0,1137,[1],stimuli/1101111.jpg,336145,prediction_trial,182,image-keyboard-response,
133,Experiment 2,True,1,False,True,001,2,2,False,True,True,True,110,0.0-159.0,2,1477,[2],stimuli/2001110.jpg,338175,prediction_trial,184,image-keyboard-response,
133,Experiment 2,True,1,True,True,000,2,2,True,True,True,True,010,0.0-161.0,2,1096,[2],stimuli/2000010.jpg,339753,prediction_trial,186,image-keyboard-response,
133,Experiment 2,True,1,False,True,001,2,2,False,True,True,True,010,0.0-163.0,2,1484,[2],stimuli/2001010.jpg,341777,prediction_trial,188,image-keyboard-response,
133,Experiment 2,True,1,True,True,000,1,1,True,True,True,True,000,0.0-165.0,1,766,[1],stimuli/1000000.jpg,343033,prediction_trial,190,image-keyboard-response,
133,Experiment 2,True,1,True,True,011,0,0,False,True,False,True,100,0.0-167.0,0,1454,[0],stimuli/0011100.jpg,345049,prediction_trial,192,image-keyboard-response,
133,Experiment 2,True,1,True,True,000,2,2,True,True,True,True,100,0.0-169.0,2,823,[2],stimuli/2000100.jpg,347098,prediction_trial,194,image-keyboard-response,
133,Experiment 2,True,1,True,True,110,2,2,True,True,True,True,110,0.0-171.0,2,797,[2],stimuli/2110110.jpg,348785,prediction_trial,196,image-keyboard-response,
133,Experiment 2,True,1,True,True,010,0,0,True,True,True,True,011,0.0-173.0,0,680,[0],stimuli/0010011.jpg,350065,prediction_trial,198,image-keyboard-response,
133,Experiment 2,False,0,False,False,101,2,2,False,False,False,False,011,0.0-175.0,1,2210,"[2, 0]",stimuli/2101011.jpg,353001,prediction_trial,200,image-keyboard-response,
133,Experiment 2,True,1,False,False,101,0,2,False,False,True,True,011,0.0-177.0,2,3295,"[0, 2]",stimuli/0101011.jpg,356889,prediction_trial,202,image-keyboard-response,
133,Experiment 2,False,0,False,False,111,2,2,False,False,True,True,000,0.0-179.0,1,1965,"[1, 2, 0]",stimuli/2111000.jpg,359785,prediction_trial,204,image-keyboard-response,
133,Experiment 2,True,1,True,True,100,2,2,False,True,False,True,001,0.0-181.0,2,2478,[2],stimuli/2100001.jpg,362849,prediction_trial,206,image-keyboard-response,
133,Experiment 2,True,1,True,True,001,0,0,True,True,True,True,011,0.0-183.0,0,841,[0],stimuli/0001011.jpg,364202,prediction_trial,208,image-keyboard-response,
133,Experiment 2,True,1,True,True,100,1,1,True,True,True,True,000,0.0-185.0,1,662,[1],stimuli/1100000.jpg,365400,prediction_trial,210,image-keyboard-response,
133,Experiment 2,True,1,True,True,000,1,1,True,True,True,True,100,0.0-187.0,1,588,[1],stimuli/1000100.jpg,366600,prediction_trial,212,image-keyboard-response,
133,Experiment 2,True,1,True,True,110,2,2,False,False,False,False,111,0.0-189.0,2,917,[2],stimuli/2110111.jpg,368041,prediction_trial,214,image-keyboard-response,
133,Experiment 2,True,1,True,True,000,0,0,True,True,True,True,010,0.0-191.0,0,699,[0],stimuli/0000010.jpg,369322,prediction_trial,216,image-keyboard-response,
133,Experiment 2,False,0,False,False,110,0,0,False,False,False,False,101,0.0-193.0,2,2477,"[0, 1]",stimuli/0110101.jpg,372465,prediction_trial,218,image-keyboard-response,
133,Experiment 2,False,0,False,False,111,1,2,False,False,True,True,100,0.0-195.0,1,1141,"[1, 2, 0]",stimuli/1111100.jpg,374137,prediction_trial,220,image-keyboard-response,
133,Experiment 2,True,1,True,True,101,1,1,False,False,False,False,011,0.0-197.0,1,4009,[1],stimuli/1101011.jpg,378673,prediction_trial,222,image-keyboard-response,
133,Experiment 2,False,0,False,False,101,2,0,False,False,True,True,000,0.0-199.0,2,1662,"[0, 2]",stimuli/2101000.jpg,380929,prediction_trial,224,image-keyboard-response,
133,Experiment 2,True,1,True,True,010,2,2,True,True,True,True,010,0.0-201.0,2,675,[2],stimuli/2010010.jpg,382137,prediction_trial,226,image-keyboard-response,
133,Experiment 2,True,1,True,True,100,2,2,True,True,True,True,000,0.0-203.0,2,596,[2],stimuli/2100000.jpg,383226,prediction_trial,228,image-keyboard-response,
133,Experiment 2,False,0,False,False,111,1,0,False,False,True,True,000,0.0-205.0,1,1014,"[0, 1, 2]",stimuli/1111000.jpg,384649,prediction_trial,230,image-keyboard-response,
133,Experiment 2,True,1,True,True,110,2,2,True,True,True,True,100,0.0-207.0,2,778,[2],stimuli/2110100.jpg,385907,prediction_trial,232,image-keyboard-response,
133,Experiment 2,False,0,False,False,011,1,2,False,False,True,True,001,0.0-209.0,1,2606,"[1, 2]",stimuli/1011001.jpg,389025,prediction_trial,234,image-keyboard-response,
133,Experiment 2,True,1,True,True,001,1,1,True,True,True,True,000,0.0-211.0,1,807,[1],stimuli/1001000.jpg,390602,prediction_trial,236,image-keyboard-response,
133,Experiment 2,False,0,False,True,100,0,0,False,False,False,False,110,0.0-213.0,1,1312,[0],stimuli/0100110.jpg,392385,prediction_trial,238,image-keyboard-response,
133,Experiment 2,False,0,False,True,001,2,2,False,False,False,False,011,0.0-215.0,1,1423,[2],stimuli/2001011.jpg,394282,prediction_trial,240,image-keyboard-response,
133,Experiment 2,False,0,True,True,000,0,0,False,False,False,False,110,0.0-217.0,1,3557,[0],stimuli/0000110.jpg,398249,prediction_trial,242,image-keyboard-response,
133,Experiment 2,True,1,True,True,001,1,1,True,True,True,True,100,0.0-219.0,1,655,[1],stimuli/1001100.jpg,399383,prediction_trial,244,image-keyboard-response,
133,Experiment 2,True,1,False,False,110,0,0,False,False,True,True,011,0.0-221.0,0,1330,"[1, 0]",stimuli/0110011.jpg,401210,prediction_trial,246,image-keyboard-response,
133,Experiment 2,True,1,True,True,000,0,0,False,False,False,False,111,0.0-223.0,0,1468,[0],stimuli/0000111.jpg,403209,prediction_trial,248,image-keyboard-response,
133,Experiment 2,True,1,True,True,101,1,1,True,True,True,True,000,0.0-225.0,1,791,[1],stimuli/1101000.jpg,404577,prediction_trial,250,image-keyboard-response,
133,Experiment 2,False,0,False,False,111,0,2,False,False,False,False,111,0.0-227.0,0,727,"[1, 0, 2]",stimuli/0111111.jpg,405706,prediction_trial,252,image-keyboard-response,
133,Experiment 2,True,1,True,True,100,1,1,True,True,True,True,100,0.0-229.0,1,661,[1],stimuli/1100100.jpg,406841,prediction_trial,254,image-keyboard-response,
133,Experiment 2,True,1,True,True,000,1,1,True,True,True,True,001,0.0-231.0,1,534,[1],stimuli/1000001.jpg,407793,prediction_trial,256,image-keyboard-response,
133,Experiment 2,True,1,False,True,100,0,0,False,False,False,False,101,0.0-233.0,0,2330,[0],stimuli/0100101.jpg,410519,prediction_trial,258,image-keyboard-response,
133,Experiment 2,False,0,False,False,111,1,0,False,False,True,True,001,0.0-235.0,1,1122,"[1, 2, 0]",stimuli/1111001.jpg,412306,prediction_trial,260,image-keyboard-response,
133,Experiment 2,True,1,True,True,100,2,2,True,True,True,True,110,0.0-237.0,2,757,[2],stimuli/2100110.jpg,413577,prediction_trial,262,image-keyboard-response,
133,Experiment 2,True,1,True,True,001,1,1,True,True,True,True,001,0.0-239.0,1,1268,[1],stimuli/1001001.jpg,415401,prediction_trial,264,image-keyboard-response,
133,Experiment 2,True,1,True,True,000,0,0,False,True,False,True,100,0.0-241.0,0,1876,[0],stimuli/0000100.jpg,417776,prediction_trial,266,image-keyboard-response,
133,Experiment 2,True,1,False,False,101,2,0,False,False,False,False,101,0.0-243.0,0,1093,"[2, 0]",stimuli/2101101.jpg,419409,prediction_trial,268,image-keyboard-response,
133,Experiment 2,True,1,True,True,010,2,2,False,True,False,True,001,0.0-245.0,2,2121,[2],stimuli/2010001.jpg,422127,prediction_trial,270,image-keyboard-response,
133,Experiment 2,True,1,False,False,110,1,1,False,False,True,True,101,0.0-247.0,1,979,"[1, 0]",stimuli/1110101.jpg,424379,prediction_trial,272,image-keyboard-response,
133,Experiment 2,True,1,True,True,001,0,0,True,True,True,True,010,0.0-249.0,0,1405,[0],stimuli/0001010.jpg,426484,prediction_trial,274,image-keyboard-response,
133,Experiment 2,True,1,True,True,100,1,1,True,True,True,True,101,0.0-251.0,1,709,[1],stimuli/1100101.jpg,427701,prediction_trial,276,image-keyboard-response,
133,Experiment 2,False,0,False,False,111,1,0,False,False,False,False,011,0.0-253.0,1,1576,"[2, 0, 1]",stimuli/1111011.jpg,429804,prediction_trial,278,image-keyboard-response,
133,Experiment 2,True,1,False,True,010,1,1,False,True,True,True,100,0.0-255.0,1,2019,[1],stimuli/1010100.jpg,433226,prediction_trial,280,image-keyboard-response,
133,Experiment 2,False,0,False,False,011,2,1,False,False,True,True,000,0.0-257.0,2,1095,"[1, 2]",stimuli/2011000.jpg,434822,prediction_trial,282,image-keyboard-response,
133,Experiment 2,False,0,False,False,110,1,0,False,False,False,False,110,0.0-259.0,1,910,"[1, 0]",stimuli/1110110.jpg,436277,prediction_trial,284,image-keyboard-response,
133,Experiment 2,True,1,False,False,110,0,0,False,False,True,True,010,0.0-261.0,0,2989,"[0, 1]",stimuli/0110010.jpg,439957,prediction_trial,286,image-keyboard-response,
133,Experiment 2,True,1,False,True,001,2,2,False,True,True,True,100,0.0-263.0,2,1612,[2],stimuli/2001100.jpg,442139,prediction_trial,288,image-keyboard-response,
133,Experiment 2,True,1,False,False,101,2,2,False,False,True,True,110,0.0-265.0,2,1315,"[0, 2]",stimuli/2101110.jpg,443926,prediction_trial,290,image-keyboard-response,
133,Experiment 2,False,0,False,False,111,2,0,False,False,False,False,011,0.0-267.0,1,1321,"[1, 0, 2]",stimuli/2111011.jpg,445709,prediction_trial,292,image-keyboard-response,
133,Experiment 2,True,1,False,False,110,1,1,False,False,True,True,001,0.0-269.0,1,967,"[0, 1]",stimuli/1110001.jpg,447251,prediction_trial,294,image-keyboard-response,
133,Experiment 2,True,1,True,True,001,0,0,True,True,True,True,000,0.0-271.0,0,1032,[0],stimuli/0001000.jpg,449013,prediction_trial,296,image-keyboard-response,
133,Experiment 2,True,1,False,False,110,0,0,False,False,False,True,100,0.0-273.0,0,1262,"[0, 1]",stimuli/0110100.jpg,450949,prediction_trial,298,image-keyboard-response,
133,Experiment 2,True,1,True,True,010,2,2,True,True,True,True,110,0.0-275.0,2,820,[2],stimuli/2010110.jpg,452429,prediction_trial,300,image-keyboard-response,
133,Experiment 2,True,1,False,False,101,2,2,False,False,True,True,010,0.0-277.0,2,1577,"[2, 0]",stimuli/2101010.jpg,454617,prediction_trial,302,image-keyboard-response,
133,Experiment 2,True,1,True,True,100,2,2,True,True,True,True,010,0.0-279.0,2,789,[2],stimuli/2100010.jpg,455957,prediction_trial,304,image-keyboard-response,
133,Experiment 2,False,0,False,False,111,2,2,False,False,True,True,100,0.0-281.0,1,1104,"[2, 1, 0]",stimuli/2111100.jpg,457677,prediction_trial,306,image-keyboard-response,
133,Experiment 2,True,1,False,False,011,2,1,False,False,False,False,011,0.0-283.0,1,1124,"[2, 1]",stimuli/2011011.jpg,459387,prediction_trial,308,image-keyboard-response,
133,Experiment 2,False,0,False,False,101,2,0,False,False,False,True,001,0.0-285.0,2,1926,"[2, 0]",stimuli/2101001.jpg,461995,prediction_trial,310,image-keyboard-response,
133,Experiment 2,False,0,False,False,011,1,2,False,False,True,True,101,0.0-287.0,1,1269,"[1, 2]",stimuli/1011101.jpg,463788,prediction_trial,312,image-keyboard-response,
133,Experiment 2,False,0,False,False,111,0,2,False,False,False,True,100,0.0-289.0,0,872,"[0, 1, 2]",stimuli/0111100.jpg,465148,prediction_trial,314,image-keyboard-response,
133,Experiment 2,True,1,True,True,010,0,0,True,True,True,True,000,0.0-291.0,0,749,[0],stimuli/0010000.jpg,467510,prediction_trial,316,image-keyboard-response,
130,Experiment 2,True,1,True,True,010,2,2,False,False,False,False,101,0.0-5.0,2,13855,[2],stimuli/2010101.jpg,1139055,prediction_trial,30,image-keyboard-response,
130,Experiment 2,True,1,False,True,100,0,0,False,True,True,True,011,0.0-7.0,0,1582,[0],stimuli/0100011.jpg,1143642,prediction_trial,32,image-keyboard-response,
130,Experiment 2,True,1,False,True,100,0,0,False,True,True,True,010,0.0-9.0,0,2194,[0],stimuli/0100010.jpg,1148171,prediction_trial,34,image-keyboard-response,
130,Experiment 2,True,1,True,True,000,0,0,True,True,True,True,000,0.0-11.0,0,1281,[0],stimuli/0000000.jpg,1149768,prediction_trial,36,image-keyboard-response,
130,Experiment 2,False,0,True,True,000,0,0,False,False,False,False,101,0.0-13.0,2,2285,[0],stimuli/0000101.jpg,1152251,prediction_trial,38,image-keyboard-response,
130,Experiment 2,True,1,True,True,011,0,0,False,False,False,False,110,0.0-15.0,0,1622,[0],stimuli/0011110.jpg,1154123,prediction_trial,40,image-keyboard-response,
130,Experiment 2,False,0,False,True,001,2,2,False,False,False,False,101,0.0-17.0,0,2604,[2],stimuli/2001101.jpg,1156939,prediction_trial,42,image-keyboard-response,
130,Experiment 2,True,1,True,True,011,0,0,False,False,False,False,101,0.0-19.0,0,2592,[0],stimuli/0011101.jpg,1159784,prediction_trial,44,image-keyboard-response,
130,Experiment 2,False,0,True,True,001,1,1,True,True,True,True,101,0.0-21.0,2,4222,[1],stimuli/1001101.jpg,1165355,prediction_trial,46,image-keyboard-response,
130,Experiment 2,False,0,False,False,101,0,2,False,False,False,False,111,0.0-23.0,0,2490,"[0, 2]",stimuli/0101111.jpg,1174459,prediction_trial,48,image-keyboard-response,
130,Experiment 2,True,1,False,True,001,2,2,False,True,False,True,001,0.0-25.0,2,2383,[2],stimuli/2001001.jpg,1177083,prediction_trial,50,image-keyboard-response,
130,Experiment 2,False,0,True,True,010,0,0,False,False,False,False,110,0.0-27.0,1,1700,[0],stimuli/0010110.jpg,1179738,prediction_trial,52,image-keyboard-response,
130,Experiment 2,False,0,False,False,101,0,2,False,False,True,True,011,0.0-29.0,0,1539,"[2, 0]",stimuli/0101011.jpg,1181467,prediction_trial,54,image-keyboard-response,
130,Experiment 2,False,0,False,False,110,1,0,False,False,True,True,000,0.0-31.0,1,1259,"[1, 0]",stimuli/1110000.jpg,1182896,prediction_trial,56,image-keyboard-response,
130,Experiment 2,False,0,True,True,001,1,1,False,False,False,False,011,0.0-33.0,2,1805,[1],stimuli/1001011.jpg,1184925,prediction_trial,58,image-keyboard-response,
130,Experiment 2,True,1,True,True,000,0,0,True,True,True,True,010,0.0-35.0,0,1415,[0],stimuli/0000010.jpg,1186539,prediction_trial,60,image-keyboard-response,
130,Experiment 2,False,0,True,True,110,2,2,False,False,False,False,011,0.0-37.0,1,1853,[2],stimuli/2110011.jpg,1188763,prediction_trial,62,image-keyboard-response,
130,Experiment 2,True,1,True,True,100,1,1,False,True,False,True,010,0.0-39.0,1,2477,[1],stimuli/1100010.jpg,1191459,prediction_trial,64,image-keyboard-response,
130,Experiment 2,True,1,True,True,000,0,0,True,True,True,True,011,0.0-41.0,0,1377,[0],stimuli/0000011.jpg,1193223,prediction_trial,66,image-keyboard-response,
130,Experiment 2,False,0,False,False,111,0,2,False,False,False,True,100,0.0-43.0,0,1645,"[1, 0, 2]",stimuli/0111100.jpg,1195154,prediction_trial,68,image-keyboard-response,
130,Experiment 2,True,1,False,False,110,1,1,False,False,False,False,110,0.0-45.0,1,2142,"[1, 0]",stimuli/1110110.jpg,1197675,prediction_trial,70,image-keyboard-response,
130,Experiment 2,True,1,True,True,110,2,2,True,True,True,True,100,0.0-47.0,2,1366,[2],stimuli/2110100.jpg,1199379,prediction_trial,72,image-keyboard-response,
130,Experiment 2,False,0,True,True,000,1,1,True,True,True,True,101,0.0-49.0,2,2023,[1],stimuli/1000101.jpg,1201731,prediction_trial,74,image-keyboard-response,
130,Experiment 2,True,1,False,False,111,1,1,False,False,False,True,010,0.0-51.0,1,3786,"[1, 0, 2]",stimuli/1111010.jpg,1207163,prediction_trial,76,image-keyboard-response,
130,Experiment 2,True,1,False,False,011,2,2,False,False,True,True,100,0.0-53.0,2,1237,"[1, 2]",stimuli/2011100.jpg,1208819,prediction_trial,78,image-keyboard-response,
130,Experiment 2,True,1,True,True,101,1,1,False,True,False,True,010,0.0-55.0,1,1695,[1],stimuli/1101010.jpg,1210787,prediction_trial,80,image-keyboard-response,
130,Experiment 2,True,1,True,True,010,2,2,True,True,True,True,110,0.0-57.0,2,1181,[2],stimuli/2010110.jpg,1212226,prediction_trial,82,image-keyboard-response,
130,Experiment 2,True,1,False,True,100,0,0,False,True,False,True,100,0.0-59.0,0,1492,[0],stimuli/0100100.jpg,1214126,prediction_trial,84,image-keyboard-response,
130,Experiment 2,True,1,False,True,001,2,2,False,True,True,True,010,0.0-61.0,2,1133,[2],stimuli/2001010.jpg,1215530,prediction_trial,86,image-keyboard-response,
130,Experiment 2,True,1,True,True,011,0,0,True,True,True,True,010,0.0-63.0,0,1134,[0],stimuli/0011010.jpg,1217683,prediction_trial,88,image-keyboard-response,
130,Experiment 2,True,1,False,False,111,1,1,False,False,True,True,000,0.0-65.0,1,1135,"[1, 0, 2]",stimuli/1111000.jpg,1219091,prediction_trial,90,image-keyboard-response,
130,Experiment 2,True,1,False,True,010,1,1,False,True,True,True,101,0.0-67.0,1,1016,[1],stimuli/1010101.jpg,1220339,prediction_trial,92,image-keyboard-response,
130,Experiment 2,True,1,True,True,010,0,0,True,True,True,True,011,0.0-69.0,0,1175,[0],stimuli/0010011.jpg,1221771,prediction_trial,94,image-keyboard-response,
130,Experiment 2,True,1,True,True,110,2,2,True,True,True,True,010,0.0-71.0,2,1050,[2],stimuli/2110010.jpg,1223108,prediction_trial,96,image-keyboard-response,
130,Experiment 2,False,0,False,False,111,1,0,False,False,True,True,001,0.0-73.0,1,1106,"[1, 0, 2]",stimuli/1111001.jpg,1225603,prediction_trial,98,image-keyboard-response,
130,Experiment 2,True,1,True,True,001,1,1,False,False,False,False,111,0.0-75.0,1,1999,[1],stimuli/1001111.jpg,1227852,prediction_trial,100,image-keyboard-response,
130,Experiment 2,False,0,False,False,011,1,2,False,False,False,False,111,0.0-77.0,0,1604,"[1, 2]",stimuli/1011111.jpg,1229779,prediction_trial,102,image-keyboard-response,
130,Experiment 2,True,1,True,True,101,1,1,False,False,False,False,111,0.0-79.0,1,1547,[1],stimuli/1101111.jpg,1231626,prediction_trial,104,image-keyboard-response,
130,Experiment 2,True,1,True,True,010,0,0,True,True,True,True,010,0.0-81.0,0,1185,[0],stimuli/0010010.jpg,1233050,prediction_trial,106,image-keyboard-response,
130,Experiment 2,False,0,True,True,000,0,0,False,False,False,False,110,0.0-83.0,1,2555,[0],stimuli/0000110.jpg,1235841,prediction_trial,108,image-keyboard-response,
130,Experiment 2,False,0,False,True,001,2,2,False,False,False,False,011,0.0-85.0,1,3344,[2],stimuli/2001011.jpg,1239443,prediction_trial,110,image-keyboard-response,
130,Experiment 2,False,0,True,True,100,1,1,False,False,False,False,110,0.0-87.0,0,1724,[1],stimuli/1100110.jpg,1243467,prediction_trial,112,image-keyboard-response,
130,Experiment 2,False,0,True,True,100,2,2,False,False,False,False,011,0.0-89.0,1,2515,[2],stimuli/2100011.jpg,1246719,prediction_trial,114,image-keyboard-response,
130,Experiment 2,True,1,False,False,111,2,2,False,False,False,True,001,0.0-91.0,2,2703,"[0, 2, 1]",stimuli/2111001.jpg,1249659,prediction_trial,116,image-keyboard-response,
130,Experiment 2,False,0,False,False,101,2,0,False,False,False,True,001,0.0-93.0,2,1688,"[2, 0]",stimuli/2101001.jpg,1253669,prediction_trial,118,image-keyboard-response,
130,Experiment 2,True,1,False,True,001,2,2,False,True,True,True,100,0.0-95.0,2,1698,[2],stimuli/2001100.jpg,1257920,prediction_trial,120,image-keyboard-response,
130,Experiment 2,True,1,True,True,110,2,2,False,True,False,True,001,0.0-97.0,2,1151,[2],stimuli/2110001.jpg,1259884,prediction_trial,122,image-keyboard-response,
130,Experiment 2,False,0,False,True,100,0,0,False,False,False,False,111,0.0-99.0,1,2591,[0],stimuli/0100111.jpg,1262835,prediction_trial,124,image-keyboard-response,
130,Experiment 2,True,1,True,True,001,1,1,False,False,False,False,110,0.0-101.0,1,1925,[1],stimuli/1001110.jpg,1265004,prediction_trial,126,image-keyboard-response,
130,Experiment 2,False,0,False,False,101,0,2,False,False,False,True,100,0.0-103.0,0,2945,"[2, 0]",stimuli/0101100.jpg,1268273,prediction_trial,128,image-keyboard-response,
130,Experiment 2,True,1,False,False,110,0,0,False,False,False,False,111,0.0-105.0,0,9848,"[1, 0]",stimuli/0110111.jpg,1278446,prediction_trial,130,image-keyboard-response,
130,Experiment 2,False,0,True,True,010,2,2,False,False,False,False,111,0.0-107.0,1,3151,[2],stimuli/2010111.jpg,1283267,prediction_trial,132,image-keyboard-response,
130,Experiment 2,True,1,False,False,101,0,0,False,False,True,True,001,0.0-109.0,0,17400,"[0, 2]",stimuli/0101001.jpg,1306129,prediction_trial,134,image-keyboard-response,
130,Experiment 2,True,1,False,True,100,0,0,False,True,True,True,001,0.0-111.0,0,3007,[0],stimuli/0100001.jpg,1310851,prediction_trial,136,image-keyboard-response,
130,Experiment 2,True,1,True,True,000,0,0,False,False,False,False,111,0.0-113.0,0,4571,[0],stimuli/0000111.jpg,1315796,prediction_trial,138,image-keyboard-response,
130,Experiment 2,True,1,False,True,100,0,0,False,False,False,False,101,0.0-115.0,0,5185,[0],stimuli/0100101.jpg,1321320,prediction_trial,140,image-keyboard-response,
130,Experiment 2,True,1,True,True,000,1,1,False,True,False,True,010,0.0-117.0,1,3797,[1],stimuli/1000010.jpg,1325555,prediction_trial,142,image-keyboard-response,
130,Experiment 2,True,1,True,True,000,2,2,False,False,False,False,101,0.0-119.0,2,2887,[2],stimuli/2000101.jpg,1328739,prediction_trial,144,image-keyboard-response,
130,Experiment 2,True,1,True,True,011,0,0,True,True,True,True,000,0.0-121.0,0,4700,[0],stimuli/0011000.jpg,1333960,prediction_trial,146,image-keyboard-response,
130,Experiment 2,True,1,True,True,001,0,0,True,True,True,True,011,0.0-123.0,0,1092,[0],stimuli/0001011.jpg,1335834,prediction_trial,148,image-keyboard-response,
130,Experiment 2,True,1,True,True,000,1,1,True,True,True,True,001,0.0-125.0,1,1454,[1],stimuli/1000001.jpg,1337522,prediction_trial,150,image-keyboard-response,
130,Experiment 2,True,1,False,False,111,2,2,False,False,True,True,100,0.0-127.0,2,3743,"[2, 1, 0]",stimuli/2111100.jpg,1341427,prediction_trial,152,image-keyboard-response,
130,Experiment 2,True,1,True,True,000,1,1,False,False,False,False,011,0.0-129.0,1,4946,[1],stimuli/1000011.jpg,1346720,prediction_trial,154,image-keyboard-response,
130,Experiment 2,False,0,False,False,111,0,0,False,False,False,False,111,0.0-131.0,2,3405,"[0, 1, 2]",stimuli/0111111.jpg,1350507,prediction_trial,156,image-keyboard-response,
130,Experiment 2,False,0,True,True,010,0,0,False,False,False,False,111,0.0-133.0,1,2773,[0],stimuli/0010111.jpg,1353546,prediction_trial,158,image-keyboard-response,
130,Experiment 2,True,1,True,True,010,2,2,False,True,False,True,001,0.0-135.0,2,6428,[2],stimuli/2010001.jpg,1360216,prediction_trial,160,image-keyboard-response,
130,Experiment 2,True,1,True,True,100,2,2,True,True,True,True,000,0.0-137.0,2,1294,[2],stimuli/2100000.jpg,1362067,prediction_trial,162,image-keyboard-response,
130,Experiment 2,True,1,False,False,011,1,1,False,False,False,False,110,0.0-139.0,1,2415,"[2, 1]",stimuli/1011110.jpg,1364675,prediction_trial,164,image-keyboard-response,
130,Experiment 2,True,1,True,True,101,1,1,True,True,True,True,000,0.0-141.0,1,2701,[1],stimuli/1101000.jpg,1368547,prediction_trial,166,image-keyboard-response,
130,Experiment 2,False,0,False,False,111,0,1,False,False,True,True,011,0.0-143.0,0,1351,"[1, 0, 2]",stimuli/0111011.jpg,1370130,prediction_trial,168,image-keyboard-response,
130,Experiment 2,True,1,True,True,010,2,2,True,True,True,True,000,0.0-145.0,2,970,[2],stimuli/2010000.jpg,1371386,prediction_trial,170,image-keyboard-response,
130,Experiment 2,False,0,False,False,101,0,0,False,False,False,False,101,0.0-147.0,2,3032,"[0, 2]",stimuli/0101101.jpg,1374659,prediction_trial,172,image-keyboard-response,
130,Experiment 2,True,1,False,False,101,2,2,False,False,False,False,101,0.0-149.0,2,2327,"[2, 0]",stimuli/2101101.jpg,1377195,prediction_trial,174,image-keyboard-response,
130,Experiment 2,False,0,True,True,101,1,1,False,False,False,False,110,0.0-151.0,0,3274,[1],stimuli/1101110.jpg,1380807,prediction_trial,176,image-keyboard-response,
130,Experiment 2,True,1,False,False,011,1,1,False,False,False,False,011,0.0-153.0,1,2750,"[2, 1]",stimuli/1011011.jpg,1384082,prediction_trial,178,image-keyboard-response,
130,Experiment 2,False,0,False,False,011,1,2,False,False,True,True,101,0.0-155.0,1,1255,"[1, 2]",stimuli/1011101.jpg,1386523,prediction_trial,180,image-keyboard-response,
130,Experiment 2,False,0,False,False,110,0,1,False,False,True,True,000,0.0-157.0,0,1282,"[1, 0]",stimuli/0110000.jpg,1388010,prediction_trial,182,image-keyboard-response,
130,Experiment 2,False,0,False,False,110,0,1,False,False,False,False,101,0.0-159.0,0,4955,"[0, 1]",stimuli/0110101.jpg,1395487,prediction_trial,184,image-keyboard-response,
130,Experiment 2,True,1,True,True,010,0,0,True,True,True,True,001,0.0-161.0,0,4287,[0],stimuli/0010001.jpg,1403651,prediction_trial,186,image-keyboard-response,
130,Experiment 2,False,0,False,False,101,2,0,False,False,True,True,000,0.0-163.0,2,1219,"[0, 2]",stimuli/2101000.jpg,1405298,prediction_trial,188,image-keyboard-response,
130,Experiment 2,True,1,True,True,000,0,0,False,True,False,True,100,0.0-165.0,0,2781,[0],stimuli/0000100.jpg,1412931,prediction_trial,190,image-keyboard-response,
130,Experiment 2,True,1,False,False,110,1,0,False,False,False,False,111,0.0-167.0,0,2055,"[1, 0]",stimuli/1110111.jpg,1416819,prediction_trial,192,image-keyboard-response,
130,Experiment 2,True,1,True,True,100,1,1,False,False,False,False,011,0.0-169.0,1,2242,[1],stimuli/1100011.jpg,1419822,prediction_trial,194,image-keyboard-response,
130,Experiment 2,True,1,True,True,000,2,2,True,True,True,True,110,0.0-171.0,2,1415,[2],stimuli/2000110.jpg,1421411,prediction_trial,196,image-keyboard-response,
130,Experiment 2,True,1,False,False,110,1,1,False,False,True,True,001,0.0-173.0,1,1229,"[0, 1]",stimuli/1110001.jpg,1423010,prediction_trial,198,image-keyboard-response,
130,Experiment 2,False,0,True,True,011,0,0,False,False,False,False,111,0.0-175.0,1,2360,[0],stimuli/0011111.jpg,1425707,prediction_trial,200,image-keyboard-response,
130,Experiment 2,False,0,False,False,110,0,0,False,False,False,False,110,0.0-177.0,1,1773,"[1, 0]",stimuli/0110110.jpg,1427971,prediction_trial,202,image-keyboard-response,
130,Experiment 2,True,1,True,True,010,0,0,False,False,False,False,101,0.0-179.0,0,5968,[0],stimuli/0010101.jpg,1434183,prediction_trial,204,image-keyboard-response,
130,Experiment 2,True,1,True,True,110,2,2,True,True,True,True,110,0.0-181.0,2,9140,[2],stimuli/2110110.jpg,1444408,prediction_trial,206,image-keyboard-response,
130,Experiment 2,False,0,False,False,011,2,1,False,False,True,True,010,0.0-183.0,2,5896,"[2, 1]",stimuli/2011010.jpg,1454512,prediction_trial,208,image-keyboard-response,
130,Experiment 2,True,1,True,True,110,2,2,False,False,False,False,111,0.0-185.0,2,5566,[2],stimuli/2110111.jpg,1460386,prediction_trial,210,image-keyboard-response,
130,Experiment 2,True,1,False,False,111,1,0,False,False,False,False,110,0.0-187.0,0,3549,"[0, 1, 2]",stimuli/1111110.jpg,1464422,prediction_trial,212,image-keyboard-response,
130,Experiment 2,False,0,True,True,000,2,2,False,False,False,False,011,0.0-189.0,1,2914,[2],stimuli/2000011.jpg,1467659,prediction_trial,214,image-keyboard-response,
130,Experiment 2,True,1,True,True,110,2,2,True,True,True,True,000,0.0-191.0,2,1637,[2],stimuli/2110000.jpg,1469756,prediction_trial,216,image-keyboard-response,
130,Experiment 2,True,1,False,True,010,1,1,False,True,True,True,100,0.0-193.0,1,1103,[1],stimuli/1010100.jpg,1471058,prediction_trial,218,image-keyboard-response,
130,Experiment 2,False,0,True,True,100,2,2,False,False,False,False,111,0.0-195.0,0,3426,[2],stimuli/2100111.jpg,1474751,prediction_trial,220,image-keyboard-response,
130,Experiment 2,True,1,False,False,011,2,2,False,False,False,False,011,0.0-197.0,2,2424,"[2, 1]",stimuli/2011011.jpg,1478123,prediction_trial,222,image-keyboard-response,
130,Experiment 2,True,1,False,False,111,0,0,False,False,True,True,010,0.0-199.0,0,1285,"[1, 0, 2]",stimuli/0111010.jpg,1479699,prediction_trial,224,image-keyboard-response,
130,Experiment 2,True,1,True,True,000,1,1,False,False,False,False,110,0.0-201.0,1,2559,[1],stimuli/1000110.jpg,1482515,prediction_trial,226,image-keyboard-response,
130,Experiment 2,True,1,False,False,111,1,1,False,False,False,False,011,0.0-203.0,1,3482,"[1, 2, 0]",stimuli/1111011.jpg,1486407,prediction_trial,228,image-keyboard-response,
130,Experiment 2,True,1,False,False,111,1,2,False,False,False,False,111,0.0-205.0,2,2927,"[1, 0, 2]",stimuli/1111111.jpg,1489563,prediction_trial,230,image-keyboard-response,
130,Experiment 2,False,0,False,False,111,2,2,False,False,False,False,111,0.0-207.0,1,1333,"[0, 2, 1]",stimuli/2111111.jpg,1491155,prediction_trial,232,image-keyboard-response,
130,Experiment 2,False,0,False,False,101,2,0,False,False,True,True,110,0.0-209.0,2,1182,"[2, 0]",stimuli/2101110.jpg,1492562,prediction_trial,234,image-keyboard-response,
130,Experiment 2,True,1,True,True,100,1,1,True,True,True,True,100,0.0-211.0,1,1341,[1],stimuli/1100100.jpg,1494132,prediction_trial,236,image-keyboard-response,
130,Experiment 2,True,1,True,True,010,2,2,True,True,True,True,010,0.0-213.0,2,1484,[2],stimuli/2010010.jpg,1495867,prediction_trial,238,image-keyboard-response,
130,Experiment 2,False,0,False,False,101,2,0,False,False,True,True,100,0.0-215.0,2,1041,"[0, 2]",stimuli/2101100.jpg,1497136,prediction_trial,240,image-keyboard-response,
130,Experiment 2,True,1,True,True,000,0,0,True,True,True,True,001,0.0-217.0,0,1264,[0],stimuli/0000001.jpg,1498620,prediction_trial,242,image-keyboard-response,
130,Experiment 2,True,1,True,True,001,0,0,True,True,True,True,000,0.0-219.0,0,733,[0],stimuli/0001000.jpg,1499754,prediction_trial,244,image-keyboard-response,
130,Experiment 2,True,1,True,True,101,1,1,True,True,True,True,101,0.0-221.0,1,1007,[1],stimuli/1101101.jpg,1500979,prediction_trial,246,image-keyboard-response,
130,Experiment 2,True,1,True,True,100,2,2,False,True,False,True,001,0.0-223.0,2,1079,[2],stimuli/2100001.jpg,1502282,prediction_trial,248,image-keyboard-response,
130,Experiment 2,True,1,False,True,010,1,1,False,True,True,True,000,0.0-225.0,1,1104,[1],stimuli/1010000.jpg,1503628,prediction_trial,250,image-keyboard-response,
130,Experiment 2,True,1,True,True,100,1,1,True,True,True,True,000,0.0-227.0,1,992,[1],stimuli/1100000.jpg,1504828,prediction_trial,252,image-keyboard-response,
130,Experiment 2,True,1,True,True,110,2,2,False,False,False,False,101,0.0-229.0,2,886,[2],stimuli/2110101.jpg,1505939,prediction_trial,254,image-keyboard-response,
130,Experiment 2,True,1,False,False,110,0,0,False,False,True,True,001,0.0-231.0,0,1140,"[1, 0]",stimuli/0110001.jpg,1507287,prediction_trial,256,image-keyboard-response,
130,Experiment 2,False,0,False,False,110,0,1,False,False,True,True,011,0.0-233.0,0,624,"[1, 0]",stimuli/0110011.jpg,1508091,prediction_trial,258,image-keyboard-response,
130,Experiment 2,False,0,False,False,110,1,0,False,False,False,False,011,0.0-235.0,2,832,"[1, 0]",stimuli/1110011.jpg,1509099,prediction_trial,260,image-keyboard-response,
130,Experiment 2,False,0,False,False,110,0,1,False,False,True,True,010,0.0-237.0,0,942,"[1, 0]",stimuli/0110010.jpg,1510315,prediction_trial,262,image-keyboard-response,
130,Experiment 2,False,0,False,False,011,1,2,False,False,False,True,010,0.0-239.0,1,1678,"[2, 1]",stimuli/1011010.jpg,1512210,prediction_trial,264,image-keyboard-response,
130,Experiment 2,True,1,True,True,011,0,0,True,True,True,True,011,0.0-241.0,0,1055,[0],stimuli/0011011.jpg,1513459,prediction_trial,266,image-keyboard-response,
130,Experiment 2,True,1,True,True,100,2,2,True,True,True,True,100,0.0-243.0,2,826,[2],stimuli/2100100.jpg,1514482,prediction_trial,268,image-keyboard-response,
130,Experiment 2,True,1,True,True,001,1,1,True,True,True,True,000,0.0-245.0,1,821,[1],stimuli/1001000.jpg,1515539,prediction_trial,270,image-keyboard-response,
130,Experiment 2,False,0,False,True,010,1,1,False,False,False,False,011,0.0-247.0,2,801,[1],stimuli/1010011.jpg,1516555,prediction_trial,272,image-keyboard-response,
130,Experiment 2,True,1,False,False,011,2,2,False,False,False,True,001,0.0-249.0,2,1948,"[1, 2]",stimuli/2011001.jpg,1518728,prediction_trial,274,image-keyboard-response,
130,Experiment 2,True,1,False,True,001,2,2,False,True,True,True,110,0.0-251.0,2,831,[2],stimuli/2001110.jpg,1519771,prediction_trial,276,image-keyboard-response,
130,Experiment 2,False,0,False,False,110,1,0,False,False,True,True,101,0.0-253.0,1,984,"[1, 0]",stimuli/1110101.jpg,1520939,prediction_trial,278,image-keyboard-response,
130,Experiment 2,True,1,False,True,010,1,1,False,False,False,False,111,0.0-255.0,1,1647,[1],stimuli/1010111.jpg,1522795,prediction_trial,280,image-keyboard-response,
130,Experiment 2,True,1,True,True,001,0,0,False,True,False,True,100,0.0-257.0,0,1960,[0],stimuli/0001100.jpg,1524907,prediction_trial,282,image-keyboard-response,
130,Experiment 2,True,1,True,True,000,2,2,True,True,True,True,100,0.0-259.0,2,776,[2],stimuli/2000100.jpg,1525826,prediction_trial,284,image-keyboard-response,
130,Experiment 2,True,1,True,True,001,1,1,True,True,True,True,100,0.0-261.0,1,1223,[1],stimuli/1001100.jpg,1527250,prediction_trial,286,image-keyboard-response,
130,Experiment 2,True,1,True,True,010,0,0,True,True,True,True,000,0.0-263.0,0,750,[0],stimuli/0010000.jpg,1528202,prediction_trial,288,image-keyboard-response,
130,Experiment 2,True,1,True,True,000,1,1,False,False,False,False,111,0.0-265.0,1,1007,[1],stimuli/1000111.jpg,1529334,prediction_trial,290,image-keyboard-response,
130,Experiment 2,False,0,False,False,011,1,2,False,False,True,True,001,0.0-267.0,1,769,"[1, 2]",stimuli/1011001.jpg,1530298,prediction_trial,292,image-keyboard-response,
130,Experiment 2,False,0,False,False,111,1,2,False,False,True,True,100,0.0-269.0,1,680,"[2, 0, 1]",stimuli/1111100.jpg,1531131,prediction_trial,294,image-keyboard-response,
130,Experiment 2,True,1,True,True,100,2,2,False,False,False,False,101,0.0-271.0,2,1015,[2],stimuli/2100101.jpg,1532379,prediction_trial,296,image-keyboard-response,
130,Experiment 2,False,0,False,False,111,0,2,False,False,False,False,110,0.0-273.0,0,1054,"[1, 0, 2]",stimuli/0111110.jpg,1533651,prediction_trial,298,image-keyboard-response,
130,Experiment 2,True,1,False,True,010,1,1,False,False,False,False,110,0.0-275.0,1,1008,[1],stimuli/1010110.jpg,1534852,prediction_trial,300,image-keyboard-response,
130,Experiment 2,True,1,True,True,000,2,2,False,False,False,False,111,0.0-277.0,2,1102,[2],stimuli/2000111.jpg,1536219,prediction_trial,302,image-keyboard-response,
130,Experiment 2,True,1,False,True,010,1,1,False,True,False,True,010,0.0-279.0,1,1533,[1],stimuli/1010010.jpg,1537995,prediction_trial,304,image-keyboard-response,
130,Experiment 2,True,1,False,False,011,1,1,False,False,True,True,100,0.0-281.0,1,902,"[2, 1]",stimuli/1011100.jpg,1539091,prediction_trial,306,image-keyboard-response,
130,Experiment 2,True,1,False,False,111,1,1,False,False,True,True,101,0.0-283.0,1,671,"[2, 0, 1]",stimuli/1111101.jpg,1539982,prediction_trial,308,image-keyboard-response,
130,Experiment 2,False,0,False,False,101,2,0,False,False,True,True,010,0.0-285.0,2,848,"[2, 0]",stimuli/2101010.jpg,1541011,prediction_trial,310,image-keyboard-response,
130,Experiment 2,True,1,True,True,000,1,1,True,True,True,True,000,0.0-287.0,1,856,[1],stimuli/1000000.jpg,1542043,prediction_trial,312,image-keyboard-response,
130,Experiment 2,True,1,False,False,111,0,0,False,False,True,True,000,0.0-289.0,0,792,"[2, 0, 1]",stimuli/0111000.jpg,1543010,prediction_trial,314,image-keyboard-response,
130,Experiment 2,True,1,False,False,111,0,0,False,False,True,True,001,0.0-291.0,0,667,"[1, 2, 0]",stimuli/0111001.jpg,1543787,prediction_trial,316,image-keyboard-response,
124,Experiment 2,True,1,False,False,110,0,1,False,False,True,True,011,0.0-5.0,1,1731,"[1, 0]",stimuli/0110011.jpg,239761,prediction_trial,30,image-keyboard-response,
124,Experiment 2,True,1,False,False,111,2,1,False,False,True,True,000,0.0-7.0,1,1798,"[2, 1, 0]",stimuli/2111000.jpg,242161,prediction_trial,32,image-keyboard-response,
124,Experiment 2,True,1,True,True,110,2,2,False,False,False,False,011,0.0-9.0,2,2955,[2],stimuli/2110011.jpg,245871,prediction_trial,34,image-keyboard-response,
124,Experiment 2,True,1,True,True,001,0,0,False,False,False,False,110,0.0-11.0,0,5284,[0],stimuli/0001110.jpg,252003,prediction_trial,36,image-keyboard-response,
124,Experiment 2,True,1,True,True,100,1,1,False,False,False,False,110,0.0-13.0,1,2720,[1],stimuli/1100110.jpg,255433,prediction_trial,38,image-keyboard-response,
124,Experiment 2,True,1,False,False,101,2,2,False,False,False,False,101,0.0-15.0,2,1850,"[0, 2]",stimuli/2101101.jpg,257889,prediction_trial,40,image-keyboard-response,
124,Experiment 2,True,1,True,True,010,0,0,False,False,False,False,101,0.0-17.0,0,2938,[0],stimuli/0010101.jpg,261516,prediction_trial,42,image-keyboard-response,
124,Experiment 2,True,1,False,False,101,2,0,False,False,True,True,110,0.0-19.0,0,2188,"[2, 0]",stimuli/2101110.jpg,264269,prediction_trial,44,image-keyboard-response,
124,Experiment 2,False,0,True,True,010,0,0,False,False,False,False,111,0.0-21.0,2,3458,[0],stimuli/0010111.jpg,268344,prediction_trial,46,image-keyboard-response,
124,Experiment 2,True,1,True,True,010,2,2,True,True,True,True,000,0.0-23.0,2,953,[2],stimuli/2010000.jpg,269981,prediction_trial,48,image-keyboard-response,
124,Experiment 2,True,1,True,True,000,1,1,True,True,True,True,001,0.0-25.0,1,632,[1],stimuli/1000001.jpg,270976,prediction_trial,50,image-keyboard-response,
124,Experiment 2,True,1,True,True,110,2,2,True,True,True,True,000,0.0-27.0,2,542,[2],stimuli/2110000.jpg,271757,prediction_trial,52,image-keyboard-response,
124,Experiment 2,False,0,False,False,111,2,2,False,False,False,False,111,0.0-29.0,1,1018,"[0, 1, 2]",stimuli/2111111.jpg,273054,prediction_trial,54,image-keyboard-response,
124,Experiment 2,True,1,False,False,011,1,2,False,False,True,True,000,0.0-31.0,2,2351,"[2, 1]",stimuli/1011000.jpg,275894,prediction_trial,56,image-keyboard-response,
124,Experiment 2,True,1,True,True,000,0,0,False,False,False,False,111,0.0-33.0,0,1276,[0],stimuli/0000111.jpg,277626,prediction_trial,58,image-keyboard-response,
124,Experiment 2,False,0,False,False,011,1,2,False,False,False,False,110,0.0-35.0,0,1854,"[1, 2]",stimuli/1011110.jpg,280016,prediction_trial,60,image-keyboard-response,
124,Experiment 2,True,1,True,True,101,1,1,True,True,True,True,100,0.0-37.0,1,783,[1],stimuli/1101100.jpg,281323,prediction_trial,62,image-keyboard-response,
124,Experiment 2,True,1,True,True,001,1,1,False,False,False,False,011,0.0-39.0,1,1058,[1],stimuli/1001011.jpg,282712,prediction_trial,64,image-keyboard-response,
124,Experiment 2,True,1,False,False,110,0,0,False,False,False,False,110,0.0-41.0,0,2193,"[1, 0]",stimuli/0110110.jpg,285561,prediction_trial,66,image-keyboard-response,
124,Experiment 2,False,0,False,False,111,1,2,False,False,False,False,011,0.0-43.0,0,2392,"[2, 0, 1]",stimuli/1111011.jpg,288368,prediction_trial,68,image-keyboard-response,
124,Experiment 2,True,1,True,True,000,2,2,True,True,True,True,010,0.0-45.0,2,1344,[2],stimuli/2000010.jpg,290263,prediction_trial,70,image-keyboard-response,
124,Experiment 2,False,0,False,False,011,2,1,False,False,False,False,111,0.0-47.0,0,1161,"[1, 2]",stimuli/2011111.jpg,292213,prediction_trial,72,image-keyboard-response,
124,Experiment 2,False,0,True,True,100,1,1,False,False,False,False,011,0.0-49.0,2,1182,[1],stimuli/1100011.jpg,293925,prediction_trial,74,image-keyboard-response,
124,Experiment 2,True,1,True,True,100,2,2,False,True,False,True,001,0.0-51.0,2,1396,[2],stimuli/2100001.jpg,295870,prediction_trial,76,image-keyboard-response,
124,Experiment 2,True,1,True,True,010,0,0,True,True,True,True,000,0.0-53.0,0,726,[0],stimuli/0010000.jpg,297249,prediction_trial,78,image-keyboard-response,
124,Experiment 2,False,0,False,False,110,0,1,False,False,False,False,101,0.0-55.0,2,1328,"[1, 0]",stimuli/0110101.jpg,299076,prediction_trial,80,image-keyboard-response,
124,Experiment 2,True,1,True,True,011,0,0,False,False,False,False,111,0.0-57.0,0,1000,[0],stimuli/0011111.jpg,300617,prediction_trial,82,image-keyboard-response,
124,Experiment 2,True,1,False,True,100,0,0,False,True,True,True,000,0.0-59.0,0,2369,[0],stimuli/0100000.jpg,303496,prediction_trial,84,image-keyboard-response,
124,Experiment 2,True,1,False,True,010,1,1,False,True,True,True,100,0.0-61.0,1,1328,[1],stimuli/1010100.jpg,305180,prediction_trial,86,image-keyboard-response,
124,Experiment 2,True,1,True,True,010,2,2,True,True,True,True,110,0.0-63.0,2,774,[2],stimuli/2010110.jpg,306312,prediction_trial,88,image-keyboard-response,
124,Experiment 2,True,1,True,True,100,2,2,True,True,True,True,110,0.0-65.0,2,542,[2],stimuli/2100110.jpg,307221,prediction_trial,90,image-keyboard-response,
124,Experiment 2,False,0,True,True,010,2,2,False,False,False,False,111,0.0-67.0,0,1025,[2],stimuli/2010111.jpg,308573,prediction_trial,92,image-keyboard-response,
124,Experiment 2,True,1,False,True,001,2,2,False,True,True,True,000,0.0-69.0,2,1041,[2],stimuli/2001000.jpg,310029,prediction_trial,94,image-keyboard-response,
124,Experiment 2,False,0,False,False,111,0,1,False,False,False,False,101,0.0-71.0,0,1627,"[2, 0, 1]",stimuli/0111101.jpg,311962,prediction_trial,96,image-keyboard-response,
124,Experiment 2,False,0,False,False,101,2,0,False,False,True,True,010,0.0-73.0,2,2692,"[0, 2]",stimuli/2101010.jpg,315660,prediction_trial,98,image-keyboard-response,
124,Experiment 2,True,1,False,False,111,0,0,False,False,False,False,111,0.0-75.0,0,1065,"[0, 1, 2]",stimuli/0111111.jpg,317186,prediction_trial,100,image-keyboard-response,
124,Experiment 2,False,0,True,True,100,1,1,False,False,False,False,111,0.0-77.0,0,2827,[1],stimuli/1100111.jpg,320795,prediction_trial,102,image-keyboard-response,
124,Experiment 2,True,1,True,True,100,2,2,True,True,True,True,010,0.0-79.0,2,1544,[2],stimuli/2100010.jpg,322952,prediction_trial,104,image-keyboard-response,
124,Experiment 2,False,0,False,False,111,1,0,False,False,False,False,110,0.0-81.0,1,970,"[0, 1, 2]",stimuli/1111110.jpg,324284,prediction_trial,106,image-keyboard-response,
124,Experiment 2,True,1,True,True,001,0,0,True,True,True,True,011,0.0-83.0,0,1444,[0],stimuli/0001011.jpg,326261,prediction_trial,108,image-keyboard-response,
124,Experiment 2,False,0,False,False,111,1,0,False,False,True,True,100,0.0-85.0,1,2612,"[0, 2, 1]",stimuli/1111100.jpg,329248,prediction_trial,110,image-keyboard-response,
124,Experiment 2,True,1,False,True,010,1,1,False,True,False,True,010,0.0-87.0,1,1351,[1],stimuli/1010010.jpg,331138,prediction_trial,112,image-keyboard-response,
124,Experiment 2,True,1,False,False,110,1,1,False,False,False,False,011,0.0-89.0,1,977,"[0, 1]",stimuli/1110011.jpg,332418,prediction_trial,114,image-keyboard-response,
124,Experiment 2,False,0,False,False,101,2,0,False,False,False,False,111,0.0-91.0,2,1527,"[0, 2]",stimuli/2101111.jpg,334775,prediction_trial,116,image-keyboard-response,
124,Experiment 2,True,1,False,False,110,1,0,False,False,False,True,010,0.0-93.0,0,1699,"[0, 1]",stimuli/1110010.jpg,337020,prediction_trial,118,image-keyboard-response,
124,Experiment 2,True,1,True,True,001,0,0,True,True,True,True,010,0.0-95.0,0,785,[0],stimuli/0001010.jpg,338204,prediction_trial,120,image-keyboard-response,
124,Experiment 2,True,1,True,True,000,0,0,False,True,False,True,100,0.0-97.0,0,1208,[0],stimuli/0000100.jpg,339711,prediction_trial,122,image-keyboard-response,
124,Experiment 2,True,1,True,True,110,2,2,True,True,True,True,100,0.0-99.0,2,1009,[2],stimuli/2110100.jpg,341043,prediction_trial,124,image-keyboard-response,
124,Experiment 2,True,1,False,False,110,0,0,False,False,True,True,000,0.0-101.0,0,1540,"[0, 1]",stimuli/0110000.jpg,342906,prediction_trial,126,image-keyboard-response,
124,Experiment 2,True,1,True,True,010,0,0,True,True,True,True,001,0.0-103.0,0,678,[0],stimuli/0010001.jpg,343942,prediction_trial,128,image-keyboard-response,
124,Experiment 2,True,1,False,True,100,0,0,False,True,True,True,001,0.0-105.0,0,1543,[0],stimuli/0100001.jpg,345760,prediction_trial,130,image-keyboard-response,
124,Experiment 2,True,1,False,True,001,2,2,False,True,True,True,100,0.0-107.0,2,1174,[2],stimuli/2001100.jpg,347249,prediction_trial,132,image-keyboard-response,
124,Experiment 2,True,1,False,True,010,1,1,False,True,True,True,001,0.0-109.0,1,1427,[1],stimuli/1010001.jpg,349022,prediction_trial,134,image-keyboard-response,
124,Experiment 2,False,0,False,False,011,2,2,False,False,True,True,010,0.0-111.0,0,1537,"[2, 1]",stimuli/2011010.jpg,350865,prediction_trial,136,image-keyboard-response,
124,Experiment 2,False,0,False,False,110,0,1,False,False,False,False,111,0.0-113.0,2,2696,"[1, 0]",stimuli/0110111.jpg,354270,prediction_trial,138,image-keyboard-response,
124,Experiment 2,False,0,False,False,110,1,0,False,False,True,True,001,0.0-115.0,1,1518,"[1, 0]",stimuli/1110001.jpg,363455,prediction_trial,140,image-keyboard-response,
124,Experiment 2,False,0,True,True,101,1,1,False,False,False,False,111,0.0-117.0,0,1543,[1],stimuli/1101111.jpg,367638,prediction_trial,142,image-keyboard-response,
124,Experiment 2,True,1,True,True,000,2,2,True,True,True,True,110,0.0-119.0,2,566,[2],stimuli/2000110.jpg,368663,prediction_trial,144,image-keyboard-response,
124,Experiment 2,True,1,True,True,001,0,0,True,True,True,True,001,0.0-121.0,0,442,[0],stimuli/0001001.jpg,369500,prediction_trial,146,image-keyboard-response,
124,Experiment 2,False,0,False,True,010,1,1,False,False,False,False,011,0.0-123.0,2,1117,[1],stimuli/1010011.jpg,370944,prediction_trial,148,image-keyboard-response,
124,Experiment 2,True,1,True,True,001,0,0,False,False,False,False,101,0.0-125.0,0,1316,[0],stimuli/0001101.jpg,372715,prediction_trial,150,image-keyboard-response,
124,Experiment 2,False,0,False,False,011,1,2,False,False,False,False,011,0.0-127.0,1,1878,"[1, 2]",stimuli/1011011.jpg,375286,prediction_trial,152,image-keyboard-response,
124,Experiment 2,True,1,True,True,001,1,1,True,True,True,True,000,0.0-129.0,1,602,[1],stimuli/1001000.jpg,376339,prediction_trial,154,image-keyboard-response,
124,Experiment 2,True,1,True,True,001,0,0,True,True,True,True,000,0.0-131.0,0,487,[0],stimuli/0001000.jpg,377157,prediction_trial,156,image-keyboard-response,
124,Experiment 2,False,0,False,False,101,0,0,False,False,False,False,101,0.0-133.0,2,775,"[2, 0]",stimuli/0101101.jpg,378318,prediction_trial,158,image-keyboard-response,
124,Experiment 2,True,1,False,False,111,0,0,False,False,False,True,100,0.0-135.0,0,817,"[1, 2, 0]",stimuli/0111100.jpg,379545,prediction_trial,160,image-keyboard-response,
124,Experiment 2,True,1,True,True,010,0,0,False,False,False,False,110,0.0-137.0,0,1451,[0],stimuli/0010110.jpg,382511,prediction_trial,162,image-keyboard-response,
124,Experiment 2,True,1,True,True,000,0,0,True,True,True,True,010,0.0-139.0,0,554,[0],stimuli/0000010.jpg,383500,prediction_trial,164,image-keyboard-response,
124,Experiment 2,False,0,False,True,100,0,0,False,False,False,False,111,0.0-141.0,2,1428,[0],stimuli/0100111.jpg,385252,prediction_trial,166,image-keyboard-response,
124,Experiment 2,True,1,True,True,001,1,1,True,True,True,True,101,0.0-143.0,1,634,[1],stimuli/1001101.jpg,386284,prediction_trial,168,image-keyboard-response,
124,Experiment 2,True,1,True,True,000,2,2,True,True,True,True,100,0.0-145.0,2,415,[2],stimuli/2000100.jpg,386970,prediction_trial,170,image-keyboard-response,
124,Experiment 2,True,1,False,False,111,0,1,False,False,True,True,000,0.0-147.0,1,1045,"[1, 0, 2]",stimuli/0111000.jpg,388286,prediction_trial,172,image-keyboard-response,
124,Experiment 2,False,0,True,True,000,2,2,False,False,False,False,101,0.0-149.0,0,2802,[2],stimuli/2000101.jpg,391459,prediction_trial,174,image-keyboard-response,
124,Experiment 2,True,1,True,True,000,1,1,False,True,False,True,010,0.0-151.0,1,1293,[1],stimuli/1000010.jpg,393163,prediction_trial,176,image-keyboard-response,
124,Experiment 2,True,1,False,False,111,0,2,False,False,True,True,010,0.0-153.0,2,1052,"[0, 2, 1]",stimuli/0111010.jpg,394530,prediction_trial,178,image-keyboard-response,
124,Experiment 2,True,1,True,True,001,1,1,False,False,False,False,110,0.0-155.0,1,905,[1],stimuli/1001110.jpg,395842,prediction_trial,180,image-keyboard-response,
124,Experiment 2,True,1,True,True,100,1,1,True,True,True,True,001,0.0-157.0,1,634,[1],stimuli/1100001.jpg,396895,prediction_trial,182,image-keyboard-response,
124,Experiment 2,True,1,True,True,011,0,0,False,False,False,False,101,0.0-159.0,0,2328,[0],stimuli/0011101.jpg,399590,prediction_trial,184,image-keyboard-response,
124,Experiment 2,False,0,False,False,110,1,0,False,False,False,False,111,0.0-161.0,2,2130,"[1, 0]",stimuli/1110111.jpg,402115,prediction_trial,186,image-keyboard-response,
124,Experiment 2,False,0,False,False,101,2,0,False,False,True,True,100,0.0-163.0,2,1921,"[0, 2]",stimuli/2101100.jpg,404450,prediction_trial,188,image-keyboard-response,
124,Experiment 2,True,1,False,True,010,1,1,False,True,True,True,000,0.0-165.0,1,1180,[1],stimuli/1010000.jpg,406054,prediction_trial,190,image-keyboard-response,
124,Experiment 2,False,0,True,True,000,1,1,False,False,False,False,110,0.0-167.0,0,2364,[1],stimuli/1000110.jpg,408689,prediction_trial,192,image-keyboard-response,
124,Experiment 2,True,1,True,True,000,1,1,True,True,True,True,100,0.0-169.0,1,589,[1],stimuli/1000100.jpg,409866,prediction_trial,194,image-keyboard-response,
124,Experiment 2,True,1,False,False,110,1,1,False,False,True,True,100,0.0-171.0,1,1396,"[1, 0]",stimuli/1110100.jpg,411593,prediction_trial,196,image-keyboard-response,
124,Experiment 2,False,0,False,False,011,2,1,False,False,False,True,001,0.0-173.0,2,873,"[2, 1]",stimuli/2011001.jpg,412849,prediction_trial,198,image-keyboard-response,
124,Experiment 2,False,0,False,False,101,2,0,False,False,False,True,001,0.0-175.0,2,938,"[0, 2]",stimuli/2101001.jpg,414237,prediction_trial,200,image-keyboard-response,
124,Experiment 2,False,0,False,False,110,0,1,False,False,False,True,100,0.0-177.0,0,1328,"[0, 1]",stimuli/0110100.jpg,417196,prediction_trial,202,image-keyboard-response,
124,Experiment 2,False,0,True,True,100,2,2,False,False,False,False,011,0.0-179.0,1,1882,[2],stimuli/2100011.jpg,419767,prediction_trial,204,image-keyboard-response,
124,Experiment 2,False,0,True,True,110,2,2,False,False,False,False,111,0.0-181.0,0,3241,[2],stimuli/2110111.jpg,423561,prediction_trial,206,image-keyboard-response,
124,Experiment 2,False,0,True,True,000,1,1,False,False,False,False,011,0.0-183.0,2,1943,[1],stimuli/1000011.jpg,425987,prediction_trial,208,image-keyboard-response,
124,Experiment 2,False,0,False,True,001,2,2,False,False,False,False,111,0.0-185.0,0,3241,[2],stimuli/2001111.jpg,429781,prediction_trial,210,image-keyboard-response,
124,Experiment 2,False,0,False,True,100,0,0,False,False,False,False,101,0.0-187.0,2,2704,[0],stimuli/0100101.jpg,433013,prediction_trial,212,image-keyboard-response,
124,Experiment 2,False,0,False,False,110,1,1,False,False,False,False,110,0.0-189.0,0,2117,"[0, 1]",stimuli/1110110.jpg,435556,prediction_trial,214,image-keyboard-response,
124,Experiment 2,False,0,False,False,111,1,2,False,False,False,False,111,0.0-191.0,0,633,"[2, 0, 1]",stimuli/1111111.jpg,436612,prediction_trial,216,image-keyboard-response,
124,Experiment 2,True,1,True,True,110,2,2,True,True,True,True,110,0.0-193.0,2,766,[2],stimuli/2110110.jpg,438411,prediction_trial,218,image-keyboard-response,
124,Experiment 2,True,1,True,True,000,0,0,True,True,True,True,011,0.0-195.0,0,466,[0],stimuli/0000011.jpg,439280,prediction_trial,220,image-keyboard-response,
124,Experiment 2,True,1,True,True,000,1,1,True,True,True,True,101,0.0-197.0,1,566,[1],stimuli/1000101.jpg,440169,prediction_trial,222,image-keyboard-response,
124,Experiment 2,True,1,True,True,100,1,1,False,True,False,True,010,0.0-199.0,1,4403,[1],stimuli/1100010.jpg,444911,prediction_trial,224,image-keyboard-response,
124,Experiment 2,True,1,True,True,001,1,1,True,True,True,True,001,0.0-201.0,1,1009,[1],stimuli/1001001.jpg,446323,prediction_trial,226,image-keyboard-response,
124,Experiment 2,True,1,True,True,011,0,0,True,True,True,True,000,0.0-203.0,0,1215,[0],stimuli/0011000.jpg,447849,prediction_trial,228,image-keyboard-response,
124,Experiment 2,True,1,True,True,000,2,2,False,True,False,True,001,0.0-205.0,2,1033,[2],stimuli/2000001.jpg,449194,prediction_trial,230,image-keyboard-response,
124,Experiment 2,True,1,True,True,100,1,1,True,True,True,True,000,0.0-207.0,1,678,[1],stimuli/1100000.jpg,450166,prediction_trial,232,image-keyboard-response,
124,Experiment 2,False,0,False,True,001,2,2,False,False,False,False,101,0.0-209.0,0,1444,[2],stimuli/2001101.jpg,451885,prediction_trial,234,image-keyboard-response,
124,Experiment 2,True,1,False,True,010,1,1,False,True,True,True,101,0.0-211.0,1,2186,[1],stimuli/1010101.jpg,454633,prediction_trial,236,image-keyboard-response,
124,Experiment 2,False,0,False,False,111,2,2,False,False,False,False,011,0.0-213.0,1,2007,"[0, 1, 2]",stimuli/2111011.jpg,456954,prediction_trial,238,image-keyboard-response,
124,Experiment 2,False,0,True,True,000,2,2,False,False,False,False,111,0.0-215.0,1,1272,[2],stimuli/2000111.jpg,458672,prediction_trial,240,image-keyboard-response,
124,Experiment 2,False,0,False,False,011,1,1,False,False,False,False,111,0.0-217.0,2,1879,"[1, 2]",stimuli/1011111.jpg,460937,prediction_trial,242,image-keyboard-response,
124,Experiment 2,False,0,False,False,101,0,0,False,False,False,False,111,0.0-219.0,1,1444,"[2, 0]",stimuli/0101111.jpg,462791,prediction_trial,244,image-keyboard-response,
124,Experiment 2,True,1,True,True,101,1,1,False,False,False,False,110,0.0-221.0,1,2141,[1],stimuli/1101110.jpg,465335,prediction_trial,246,image-keyboard-response,
124,Experiment 2,True,1,True,True,010,0,0,True,True,True,True,011,0.0-223.0,0,621,[0],stimuli/0010011.jpg,466371,prediction_trial,248,image-keyboard-response,
124,Experiment 2,False,0,False,False,101,2,2,False,False,True,True,000,0.0-225.0,0,3542,"[2, 0]",stimuli/2101000.jpg,470288,prediction_trial,250,image-keyboard-response,
124,Experiment 2,True,1,True,True,010,0,0,False,True,False,True,100,0.0-227.0,0,2053,[0],stimuli/0010100.jpg,472994,prediction_trial,252,image-keyboard-response,
124,Experiment 2,True,1,False,False,101,0,2,False,False,True,True,000,0.0-229.0,2,2393,"[0, 2]",stimuli/0101000.jpg,475755,prediction_trial,254,image-keyboard-response,
124,Experiment 2,True,1,True,True,110,2,2,False,False,False,False,101,0.0-231.0,2,31173,[2],stimuli/2110101.jpg,507329,prediction_trial,256,image-keyboard-response,
124,Experiment 2,True,1,False,False,111,1,1,False,False,True,True,000,0.0-233.0,1,1970,"[2, 1, 0]",stimuli/1111000.jpg,512563,prediction_trial,258,image-keyboard-response,
124,Experiment 2,False,0,False,False,011,1,1,False,False,True,True,101,0.0-235.0,0,2884,"[2, 1]",stimuli/1011101.jpg,515917,prediction_trial,260,image-keyboard-response,
124,Experiment 2,True,1,True,True,100,1,1,True,True,True,True,101,0.0-237.0,1,856,[1],stimuli/1100101.jpg,520028,prediction_trial,262,image-keyboard-response,
124,Experiment 2,True,1,False,True,001,2,2,False,True,False,True,001,0.0-239.0,2,1508,[2],stimuli/2001001.jpg,521830,prediction_trial,264,image-keyboard-response,
124,Experiment 2,True,1,True,True,110,2,2,True,True,True,True,010,0.0-241.0,2,507,[2],stimuli/2110010.jpg,522691,prediction_trial,266,image-keyboard-response,
124,Experiment 2,True,1,True,True,001,1,1,False,True,False,True,010,0.0-243.0,1,1978,[1],stimuli/1001010.jpg,524969,prediction_trial,268,image-keyboard-response,
124,Experiment 2,True,1,False,False,110,0,0,False,False,True,True,010,0.0-245.0,0,602,"[1, 0]",stimuli/0110010.jpg,525928,prediction_trial,270,image-keyboard-response,
124,Experiment 2,False,0,False,False,011,2,2,False,False,True,True,000,0.0-247.0,1,2018,"[2, 1]",stimuli/2011000.jpg,528617,prediction_trial,272,image-keyboard-response,
124,Experiment 2,True,1,True,True,000,0,0,False,False,False,False,110,0.0-249.0,0,1252,[0],stimuli/0000110.jpg,530718,prediction_trial,274,image-keyboard-response,
124,Experiment 2,False,0,False,False,101,2,0,False,False,False,False,011,0.0-251.0,1,1902,"[0, 2]",stimuli/2101011.jpg,532976,prediction_trial,276,image-keyboard-response,
124,Experiment 2,False,0,False,False,011,2,2,False,False,False,False,101,0.0-253.0,0,1467,"[2, 1]",stimuli/2011101.jpg,535926,prediction_trial,278,image-keyboard-response,
124,Experiment 2,True,1,True,True,000,1,1,True,True,True,True,000,0.0-255.0,1,726,[1],stimuli/1000000.jpg,537313,prediction_trial,280,image-keyboard-response,
124,Experiment 2,False,0,False,False,011,2,2,False,False,True,True,110,0.0-257.0,1,2058,"[1, 2]",stimuli/2011110.jpg,539758,prediction_trial,282,image-keyboard-response,
124,Experiment 2,True,1,True,True,010,2,2,False,False,False,False,101,0.0-259.0,2,1021,[2],stimuli/2010101.jpg,541772,prediction_trial,284,image-keyboard-response,
124,Experiment 2,True,1,True,True,010,2,2,True,True,True,True,100,0.0-261.0,2,657,[2],stimuli/2010100.jpg,542824,prediction_trial,286,image-keyboard-response,
124,Experiment 2,True,1,False,False,101,0,0,False,False,True,True,011,0.0-263.0,0,10954,"[2, 0]",stimuli/0101011.jpg,554038,prediction_trial,288,image-keyboard-response,
124,Experiment 2,False,0,False,False,110,0,1,False,False,True,True,001,0.0-265.0,0,5976,"[1, 0]",stimuli/0110001.jpg,561063,prediction_trial,290,image-keyboard-response,
124,Experiment 2,True,1,True,True,100,2,2,True,True,True,True,100,0.0-267.0,2,711,[2],stimuli/2100100.jpg,562204,prediction_trial,292,image-keyboard-response,
124,Experiment 2,False,0,True,True,001,0,0,False,False,False,False,111,0.0-269.0,1,2232,[0],stimuli/0001111.jpg,564840,prediction_trial,294,image-keyboard-response,
124,Experiment 2,True,1,True,True,001,1,1,False,False,False,False,111,0.0-271.0,1,933,[1],stimuli/1001111.jpg,566486,prediction_trial,296,image-keyboard-response,
124,Experiment 2,False,0,False,False,111,0,2,False,False,True,True,011,0.0-273.0,0,1308,"[1, 0, 2]",stimuli/0111011.jpg,568353,prediction_trial,298,image-keyboard-response,
124,Experiment 2,False,0,False,False,110,1,0,False,False,True,True,000,0.0-275.0,1,4521,"[1, 0]",stimuli/1110000.jpg,573381,prediction_trial,300,image-keyboard-response,
124,Experiment 2,True,1,True,True,010,2,2,True,True,True,True,010,0.0-277.0,2,886,[2],stimuli/2010010.jpg,574674,prediction_trial,302,image-keyboard-response,
124,Experiment 2,False,0,False,False,011,1,2,False,False,True,True,001,0.0-279.0,1,1416,"[1, 2]",stimuli/1011001.jpg,576452,prediction_trial,304,image-keyboard-response,
124,Experiment 2,True,1,False,False,101,0,0,False,False,True,True,010,0.0-281.0,0,3873,"[2, 0]",stimuli/0101010.jpg,580870,prediction_trial,306,image-keyboard-response,
124,Experiment 2,True,1,True,True,101,1,1,True,True,True,True,000,0.0-283.0,1,709,[1],stimuli/1101000.jpg,581962,prediction_trial,308,image-keyboard-response,
124,Experiment 2,True,1,True,True,001,1,1,True,True,True,True,100,0.0-285.0,1,518,[1],stimuli/1001100.jpg,582796,prediction_trial,310,image-keyboard-response,
124,Experiment 2,False,0,False,False,111,2,1,False,False,True,True,110,0.0-287.0,2,941,"[0, 1, 2]",stimuli/2111110.jpg,584036,prediction_trial,312,image-keyboard-response,
124,Experiment 2,False,0,False,False,111,1,2,False,False,True,True,101,0.0-289.0,1,831,"[1, 2, 0]",stimuli/1111101.jpg,585177,prediction_trial,314,image-keyboard-response,
124,Experiment 2,False,0,False,False,110,1,0,False,False,True,True,101,0.0-291.0,1,1228,"[0, 1]",stimuli/1110101.jpg,586963,prediction_trial,316,image-keyboard-response,
148,Experiment 2,True,1,False,True,010,1,1,False,True,True,True,000,0.0-5.0,1,1873,[1],stimuli/1010000.jpg,156790,prediction_trial,30,image-keyboard-response,
148,Experiment 2,False,0,False,False,011,2,2,False,False,False,False,101,0.0-7.0,0,9839,"[2, 1]",stimuli/2011101.jpg,167851,prediction_trial,32,image-keyboard-response,
148,Experiment 2,True,1,True,True,100,2,2,True,True,True,True,010,0.0-9.0,2,1165,[2],stimuli/2100010.jpg,170007,prediction_trial,34,image-keyboard-response,
148,Experiment 2,True,1,False,False,111,2,1,False,False,False,True,001,0.0-11.0,1,3300,"[2, 0, 1]",stimuli/2111001.jpg,174268,prediction_trial,36,image-keyboard-response,
148,Experiment 2,False,0,False,False,111,1,2,False,False,True,True,000,0.0-13.0,1,1743,"[2, 1, 0]",stimuli/1111000.jpg,177073,prediction_trial,38,image-keyboard-response,
148,Experiment 2,True,1,False,False,110,0,1,False,False,True,True,001,0.0-15.0,1,2298,"[1, 0]",stimuli/0110001.jpg,180372,prediction_trial,40,image-keyboard-response,
148,Experiment 2,True,1,True,True,100,2,2,True,True,True,True,110,0.0-17.0,2,1246,[2],stimuli/2100110.jpg,182497,prediction_trial,42,image-keyboard-response,
148,Experiment 2,False,0,False,False,101,0,2,False,False,False,False,110,0.0-19.0,0,2430,"[0, 2]",stimuli/0101110.jpg,185685,prediction_trial,44,image-keyboard-response,
148,Experiment 2,True,1,False,True,001,2,2,False,False,False,False,101,0.0-21.0,2,2510,[2],stimuli/2001101.jpg,189328,prediction_trial,46,image-keyboard-response,
148,Experiment 2,True,1,True,True,001,0,0,False,True,False,True,100,0.0-23.0,0,1692,[0],stimuli/0001100.jpg,191535,prediction_trial,48,image-keyboard-response,
148,Experiment 2,True,1,True,True,001,1,1,True,True,True,True,000,0.0-25.0,1,809,[1],stimuli/1001000.jpg,192850,prediction_trial,50,image-keyboard-response,
148,Experiment 2,True,1,False,False,110,0,1,False,False,True,True,010,0.0-27.0,1,2410,"[1, 0]",stimuli/0110010.jpg,195643,prediction_trial,52,image-keyboard-response,
148,Experiment 2,True,1,False,False,110,0,1,False,False,True,True,011,0.0-29.0,1,1680,"[0, 1]",stimuli/0110011.jpg,197878,prediction_trial,54,image-keyboard-response,
148,Experiment 2,True,1,True,True,000,0,0,True,True,True,True,001,0.0-31.0,0,851,[0],stimuli/0000001.jpg,199326,prediction_trial,56,image-keyboard-response,
148,Experiment 2,True,1,True,True,011,0,0,True,True,True,True,011,0.0-33.0,0,1093,[0],stimuli/0011011.jpg,200784,prediction_trial,58,image-keyboard-response,
148,Experiment 2,False,0,False,True,001,2,2,False,False,False,False,111,0.0-35.0,1,2613,[2],stimuli/2001111.jpg,203729,prediction_trial,60,image-keyboard-response,
148,Experiment 2,True,1,True,True,001,0,0,True,True,True,True,011,0.0-37.0,0,812,[0],stimuli/0001011.jpg,205227,prediction_trial,62,image-keyboard-response,
148,Experiment 2,True,1,True,True,101,1,1,True,True,True,True,101,0.0-39.0,1,1833,[1],stimuli/1101101.jpg,207606,prediction_trial,64,image-keyboard-response,
148,Experiment 2,True,1,True,True,100,1,1,True,True,True,True,000,0.0-41.0,1,953,[1],stimuli/1100000.jpg,208912,prediction_trial,66,image-keyboard-response,
148,Experiment 2,True,1,True,True,101,1,1,True,True,True,True,001,0.0-43.0,1,1073,[1],stimuli/1101001.jpg,210299,prediction_trial,68,image-keyboard-response,
148,Experiment 2,True,1,False,False,011,1,2,False,False,False,False,111,0.0-45.0,2,2431,"[1, 2]",stimuli/1011111.jpg,213032,prediction_trial,70,image-keyboard-response,
148,Experiment 2,True,1,True,True,001,0,0,True,True,True,True,001,0.0-47.0,0,740,[0],stimuli/0001001.jpg,214205,prediction_trial,72,image-keyboard-response,
148,Experiment 2,False,0,False,False,110,1,1,False,False,True,True,100,0.0-49.0,0,1702,"[0, 1]",stimuli/1110100.jpg,216291,prediction_trial,74,image-keyboard-response,
148,Experiment 2,False,0,False,False,011,2,2,False,False,True,True,110,0.0-51.0,1,2228,"[2, 1]",stimuli/2011110.jpg,219195,prediction_trial,76,image-keyboard-response,
148,Experiment 2,False,0,True,True,010,0,0,False,False,False,False,110,0.0-53.0,1,1154,[0],stimuli/0010110.jpg,221028,prediction_trial,78,image-keyboard-response,
148,Experiment 2,False,0,True,True,100,1,1,False,False,False,False,111,0.0-55.0,0,1458,[1],stimuli/1100111.jpg,223263,prediction_trial,80,image-keyboard-response,
148,Experiment 2,True,1,True,True,000,2,2,False,True,False,True,001,0.0-57.0,2,720,[2],stimuli/2000001.jpg,224499,prediction_trial,82,image-keyboard-response,
148,Experiment 2,True,1,False,True,100,0,0,False,True,True,True,000,0.0-59.0,0,892,[0],stimuli/0100000.jpg,225966,prediction_trial,84,image-keyboard-response,
148,Experiment 2,False,0,False,False,110,1,0,False,False,False,False,111,0.0-61.0,2,1661,"[1, 0]",stimuli/1110111.jpg,228325,prediction_trial,86,image-keyboard-response,
148,Experiment 2,False,0,True,True,101,1,1,False,False,False,False,011,0.0-63.0,2,2997,[1],stimuli/1101011.jpg,231847,prediction_trial,88,image-keyboard-response,
148,Experiment 2,True,1,True,True,110,2,2,True,True,True,True,000,0.0-65.0,2,659,[2],stimuli/2110000.jpg,233021,prediction_trial,90,image-keyboard-response,
148,Experiment 2,True,1,True,True,011,0,0,False,False,False,False,101,0.0-67.0,0,871,[0],stimuli/0011101.jpg,234235,prediction_trial,92,image-keyboard-response,
148,Experiment 2,True,1,True,True,110,2,2,False,False,False,False,101,0.0-69.0,2,2866,[2],stimuli/2110101.jpg,237525,prediction_trial,94,image-keyboard-response,
148,Experiment 2,False,0,False,False,011,1,2,False,False,True,True,000,0.0-71.0,1,1236,"[1, 2]",stimuli/1011000.jpg,239184,prediction_trial,96,image-keyboard-response,
148,Experiment 2,False,0,False,False,110,0,0,False,False,False,False,110,0.0-73.0,1,1024,"[1, 0]",stimuli/0110110.jpg,240702,prediction_trial,98,image-keyboard-response,
148,Experiment 2,True,1,False,False,011,1,1,False,False,True,True,100,0.0-75.0,1,1378,"[2, 1]",stimuli/1011100.jpg,242716,prediction_trial,100,image-keyboard-response,
148,Experiment 2,True,1,True,True,001,0,0,False,False,False,False,110,0.0-77.0,0,2299,[0],stimuli/0001110.jpg,245450,prediction_trial,102,image-keyboard-response,
148,Experiment 2,True,1,True,True,001,1,1,False,False,False,False,110,0.0-79.0,1,861,[1],stimuli/1001110.jpg,246815,prediction_trial,104,image-keyboard-response,
148,Experiment 2,True,1,False,False,101,0,2,False,False,True,True,011,0.0-81.0,2,2015,"[2, 0]",stimuli/0101011.jpg,249296,prediction_trial,106,image-keyboard-response,
148,Experiment 2,True,1,False,False,101,0,0,False,False,True,True,010,0.0-83.0,0,2024,"[0, 2]",stimuli/0101010.jpg,251805,prediction_trial,108,image-keyboard-response,
148,Experiment 2,False,0,True,True,010,2,2,False,False,False,False,111,0.0-85.0,1,1114,[2],stimuli/2010111.jpg,253354,prediction_trial,110,image-keyboard-response,
148,Experiment 2,True,1,True,True,110,2,2,True,True,True,True,100,0.0-87.0,2,628,[2],stimuli/2110100.jpg,254477,prediction_trial,112,image-keyboard-response,
148,Experiment 2,True,1,True,True,100,1,1,False,True,False,True,010,0.0-89.0,1,871,[1],stimuli/1100010.jpg,255673,prediction_trial,114,image-keyboard-response,
148,Experiment 2,False,0,False,False,111,0,0,False,False,True,True,000,0.0-91.0,1,1377,"[2, 1, 0]",stimuli/0111000.jpg,257402,prediction_trial,116,image-keyboard-response,
148,Experiment 2,True,1,False,True,010,1,1,False,False,False,False,110,0.0-93.0,1,770,[1],stimuli/1010110.jpg,258688,prediction_trial,118,image-keyboard-response,
148,Experiment 2,False,0,True,True,000,0,0,False,False,False,False,111,0.0-95.0,2,619,[0],stimuli/0000111.jpg,259801,prediction_trial,120,image-keyboard-response,
148,Experiment 2,True,1,True,True,000,0,0,True,True,True,True,010,0.0-97.0,0,659,[0],stimuli/0000010.jpg,261126,prediction_trial,122,image-keyboard-response,
148,Experiment 2,True,1,False,False,111,2,1,False,False,True,True,010,0.0-99.0,1,1045,"[2, 1, 0]",stimuli/2111010.jpg,262596,prediction_trial,124,image-keyboard-response,
148,Experiment 2,False,0,True,True,010,0,0,False,False,False,False,111,0.0-101.0,1,1124,[0],stimuli/0010111.jpg,264135,prediction_trial,126,image-keyboard-response,
148,Experiment 2,True,1,False,True,001,2,2,False,True,False,True,001,0.0-103.0,2,730,[2],stimuli/2001001.jpg,265350,prediction_trial,128,image-keyboard-response,
148,Experiment 2,True,1,True,True,000,1,1,False,False,False,False,110,0.0-105.0,1,1743,[1],stimuli/1000110.jpg,267547,prediction_trial,130,image-keyboard-response,
148,Experiment 2,False,0,False,False,111,1,1,False,False,False,False,110,0.0-107.0,0,1014,"[0, 2, 1]",stimuli/1111110.jpg,268986,prediction_trial,132,image-keyboard-response,
148,Experiment 2,True,1,False,True,001,2,2,False,False,False,False,011,0.0-109.0,2,810,[2],stimuli/2001011.jpg,270240,prediction_trial,134,image-keyboard-response,
148,Experiment 2,True,1,True,True,101,1,1,False,False,False,False,111,0.0-111.0,1,861,[1],stimuli/1101111.jpg,271515,prediction_trial,136,image-keyboard-response,
148,Experiment 2,True,1,False,False,011,1,1,False,False,True,True,101,0.0-113.0,1,658,"[2, 1]",stimuli/1011101.jpg,272710,prediction_trial,138,image-keyboard-response,
148,Experiment 2,True,1,True,True,000,2,2,True,True,True,True,100,0.0-115.0,2,497,[2],stimuli/2000100.jpg,273581,prediction_trial,140,image-keyboard-response,
148,Experiment 2,False,0,False,False,111,2,1,False,False,True,True,110,0.0-117.0,2,952,"[1, 2, 0]",stimuli/2111110.jpg,274876,prediction_trial,142,image-keyboard-response,
148,Experiment 2,True,1,True,True,100,1,1,True,True,True,True,001,0.0-119.0,1,892,[1],stimuli/1100001.jpg,276537,prediction_trial,144,image-keyboard-response,
148,Experiment 2,True,1,True,True,100,2,2,True,True,True,True,100,0.0-121.0,2,649,[2],stimuli/2100100.jpg,277498,prediction_trial,146,image-keyboard-response,
148,Experiment 2,False,0,False,False,101,2,2,False,False,True,True,110,0.0-123.0,0,3068,"[2, 0]",stimuli/2101110.jpg,280971,prediction_trial,148,image-keyboard-response,
148,Experiment 2,False,0,False,False,110,1,0,False,False,False,False,011,0.0-125.0,1,780,"[0, 1]",stimuli/1110011.jpg,282317,prediction_trial,150,image-keyboard-response,
148,Experiment 2,False,0,True,True,100,2,2,False,False,False,False,011,0.0-127.0,1,691,[2],stimuli/2100011.jpg,283472,prediction_trial,152,image-keyboard-response,
148,Experiment 2,True,1,False,False,101,2,2,False,False,False,False,101,0.0-129.0,2,911,"[0, 2]",stimuli/2101101.jpg,284908,prediction_trial,154,image-keyboard-response,
148,Experiment 2,True,1,False,False,011,2,1,False,False,False,True,001,0.0-131.0,1,1216,"[1, 2]",stimuli/2011001.jpg,286539,prediction_trial,156,image-keyboard-response,
148,Experiment 2,True,1,False,True,100,0,0,False,True,True,True,001,0.0-133.0,0,1266,[0],stimuli/0100001.jpg,288208,prediction_trial,158,image-keyboard-response,
148,Experiment 2,True,1,True,True,100,1,1,True,True,True,True,100,0.0-135.0,1,608,[1],stimuli/1100100.jpg,289221,prediction_trial,160,image-keyboard-response,
148,Experiment 2,False,0,False,False,111,1,2,False,False,False,True,010,0.0-137.0,1,781,"[2, 1, 0]",stimuli/1111010.jpg,290244,prediction_trial,162,image-keyboard-response,
148,Experiment 2,False,0,True,True,011,0,0,False,False,False,False,110,0.0-139.0,1,892,[0],stimuli/0011110.jpg,291692,prediction_trial,164,image-keyboard-response,
148,Experiment 2,False,0,True,True,000,2,2,False,False,False,False,111,0.0-141.0,1,780,[2],stimuli/2000111.jpg,293129,prediction_trial,166,image-keyboard-response,
148,Experiment 2,False,0,False,True,010,1,1,False,False,False,False,011,0.0-143.0,2,861,[1],stimuli/1010011.jpg,294576,prediction_trial,168,image-keyboard-response,
148,Experiment 2,False,0,False,False,101,0,0,False,False,False,False,101,0.0-145.0,2,1438,"[2, 0]",stimuli/0101101.jpg,296551,prediction_trial,170,image-keyboard-response,
148,Experiment 2,True,1,False,False,011,2,2,False,False,True,True,000,0.0-147.0,2,487,"[1, 2]",stimuli/2011000.jpg,297464,prediction_trial,172,image-keyboard-response,
148,Experiment 2,True,1,False,False,101,2,0,False,False,True,True,100,0.0-149.0,0,1064,"[0, 2]",stimuli/2101100.jpg,298962,prediction_trial,174,image-keyboard-response,
148,Experiment 2,True,1,True,True,100,2,2,True,True,True,True,000,0.0-151.0,2,1023,[2],stimuli/2100000.jpg,300410,prediction_trial,176,image-keyboard-response,
148,Experiment 2,True,1,False,False,101,2,0,False,False,False,False,111,0.0-153.0,0,931,"[2, 0]",stimuli/2101111.jpg,301594,prediction_trial,178,image-keyboard-response,
148,Experiment 2,True,1,True,True,100,1,1,False,False,False,False,110,0.0-155.0,1,669,[1],stimuli/1100110.jpg,302840,prediction_trial,180,image-keyboard-response,
148,Experiment 2,False,0,False,False,111,2,1,False,False,True,True,000,0.0-157.0,2,679,"[2, 0, 1]",stimuli/2111000.jpg,303903,prediction_trial,182,image-keyboard-response,
148,Experiment 2,False,0,True,True,001,0,0,False,False,False,False,101,0.0-159.0,2,741,[0],stimuli/0001101.jpg,305900,prediction_trial,184,image-keyboard-response,
148,Experiment 2,True,1,False,True,010,1,1,False,True,True,True,001,0.0-161.0,1,628,[1],stimuli/1010001.jpg,306962,prediction_trial,186,image-keyboard-response,
148,Experiment 2,False,0,True,True,000,1,1,False,False,False,False,011,0.0-163.0,2,1215,[1],stimuli/1000011.jpg,308603,prediction_trial,188,image-keyboard-response,
148,Experiment 2,False,0,True,True,100,2,2,False,False,False,False,101,0.0-165.0,0,650,[2],stimuli/2100101.jpg,309880,prediction_trial,190,image-keyboard-response,
148,Experiment 2,True,1,True,True,000,1,1,True,True,True,True,100,0.0-167.0,1,851,[1],stimuli/1000100.jpg,311490,prediction_trial,192,image-keyboard-response,
148,Experiment 2,True,1,True,True,011,0,0,True,True,True,True,001,0.0-169.0,0,648,[0],stimuli/0011001.jpg,312442,prediction_trial,194,image-keyboard-response,
148,Experiment 2,True,1,False,True,010,1,1,False,True,True,True,100,0.0-171.0,1,931,[1],stimuli/1010100.jpg,313707,prediction_trial,196,image-keyboard-response,
148,Experiment 2,True,1,True,True,101,1,1,True,True,True,True,000,0.0-173.0,1,760,[1],stimuli/1101000.jpg,314791,prediction_trial,198,image-keyboard-response,
148,Experiment 2,False,0,True,True,101,1,1,False,False,False,False,110,0.0-175.0,0,1358,[1],stimuli/1101110.jpg,316401,prediction_trial,200,image-keyboard-response,
148,Experiment 2,True,1,True,True,001,0,0,True,True,True,True,010,0.0-177.0,0,710,[0],stimuli/0001010.jpg,317453,prediction_trial,202,image-keyboard-response,
148,Experiment 2,True,1,True,True,010,2,2,True,True,True,True,000,0.0-179.0,2,580,[2],stimuli/2010000.jpg,318325,prediction_trial,204,image-keyboard-response,
148,Experiment 2,True,1,True,True,010,0,0,False,True,False,True,100,0.0-181.0,0,1186,[0],stimuli/0010100.jpg,319804,prediction_trial,206,image-keyboard-response,
148,Experiment 2,False,0,False,True,100,0,0,False,False,False,False,101,0.0-183.0,2,1428,[0],stimuli/0100101.jpg,321605,prediction_trial,208,image-keyboard-response,
148,Experiment 2,False,0,False,False,011,1,2,False,False,False,False,110,0.0-185.0,1,983,"[2, 1]",stimuli/1011110.jpg,323053,prediction_trial,210,image-keyboard-response,
148,Experiment 2,True,1,True,True,001,1,1,False,False,False,False,011,0.0-187.0,1,811,[1],stimuli/1001011.jpg,324471,prediction_trial,212,image-keyboard-response,
148,Experiment 2,False,0,True,True,001,0,0,False,False,False,False,111,0.0-189.0,2,1217,[0],stimuli/0001111.jpg,326071,prediction_trial,214,image-keyboard-response,
148,Experiment 2,False,0,True,True,000,0,0,False,False,False,False,110,0.0-191.0,1,577,[0],stimuli/0000110.jpg,327084,prediction_trial,216,image-keyboard-response,
148,Experiment 2,True,1,False,False,111,0,1,False,False,False,False,111,0.0-193.0,1,507,"[2, 0, 1]",stimuli/0111111.jpg,328210,prediction_trial,218,image-keyboard-response,
148,Experiment 2,True,1,False,True,001,2,2,False,True,True,True,100,0.0-195.0,2,668,[2],stimuli/2001100.jpg,329374,prediction_trial,220,image-keyboard-response,
148,Experiment 2,True,1,False,True,100,0,0,False,False,False,False,111,0.0-197.0,0,791,[0],stimuli/0100111.jpg,330559,prediction_trial,222,image-keyboard-response,
148,Experiment 2,True,1,True,True,110,2,2,True,True,True,True,110,0.0-199.0,2,810,[2],stimuli/2110110.jpg,331793,prediction_trial,224,image-keyboard-response,
148,Experiment 2,False,0,True,True,010,0,0,False,False,False,False,101,0.0-201.0,2,1197,[0],stimuli/0010101.jpg,333222,prediction_trial,226,image-keyboard-response,
148,Experiment 2,True,1,True,True,000,2,2,False,False,False,False,101,0.0-203.0,2,699,[2],stimuli/2000101.jpg,334336,prediction_trial,228,image-keyboard-response,
148,Experiment 2,True,1,False,False,111,0,0,False,False,False,False,101,0.0-205.0,0,893,"[1, 0, 2]",stimuli/0111101.jpg,335562,prediction_trial,230,image-keyboard-response,
148,Experiment 2,True,1,False,True,001,2,2,False,True,True,True,010,0.0-207.0,2,650,[2],stimuli/2001010.jpg,336574,prediction_trial,232,image-keyboard-response,
148,Experiment 2,True,1,False,False,101,0,0,False,False,False,True,100,0.0-209.0,0,913,"[2, 0]",stimuli/0101100.jpg,337829,prediction_trial,234,image-keyboard-response,
148,Experiment 2,True,1,False,False,111,2,1,False,False,True,True,100,0.0-211.0,1,1256,"[0, 1, 2]",stimuli/2111100.jpg,339378,prediction_trial,236,image-keyboard-response,
148,Experiment 2,True,1,False,True,001,2,2,False,True,True,True,110,0.0-213.0,2,861,[2],stimuli/2001110.jpg,340626,prediction_trial,238,image-keyboard-response,
148,Experiment 2,True,1,False,True,100,0,0,False,True,False,True,100,0.0-215.0,0,811,[0],stimuli/0100100.jpg,341790,prediction_trial,240,image-keyboard-response,
148,Experiment 2,True,1,True,True,011,0,0,True,True,True,True,010,0.0-217.0,0,719,[0],stimuli/0011010.jpg,342772,prediction_trial,242,image-keyboard-response,
148,Experiment 2,True,1,False,True,010,1,1,False,True,True,True,101,0.0-219.0,1,973,[1],stimuli/1010101.jpg,343987,prediction_trial,244,image-keyboard-response,
148,Experiment 2,False,0,False,False,111,2,0,False,False,False,False,101,0.0-221.0,2,872,"[2, 1, 0]",stimuli/2111101.jpg,345122,prediction_trial,246,image-keyboard-response,
148,Experiment 2,False,0,False,False,101,2,0,False,False,True,True,010,0.0-223.0,2,497,"[2, 0]",stimuli/2101010.jpg,346022,prediction_trial,248,image-keyboard-response,
148,Experiment 2,True,1,True,True,000,2,2,True,True,True,True,010,0.0-225.0,2,627,[2],stimuli/2000010.jpg,347380,prediction_trial,250,image-keyboard-response,
148,Experiment 2,True,1,False,True,100,0,0,False,True,True,True,011,0.0-227.0,0,1307,[0],stimuli/0100011.jpg,348940,prediction_trial,252,image-keyboard-response,
148,Experiment 2,False,0,False,False,111,2,2,False,False,False,False,011,0.0-229.0,1,851,"[1, 2, 0]",stimuli/2111011.jpg,350094,prediction_trial,254,image-keyboard-response,
148,Experiment 2,False,0,False,False,011,2,2,False,False,False,False,111,0.0-231.0,1,559,"[1, 2]",stimuli/2011111.jpg,351168,prediction_trial,256,image-keyboard-response,
148,Experiment 2,False,0,False,False,110,1,0,False,False,False,True,010,0.0-233.0,1,486,"[0, 1]",stimuli/1110010.jpg,352129,prediction_trial,258,image-keyboard-response,
148,Experiment 2,True,1,False,False,011,2,2,False,False,True,True,100,0.0-235.0,2,558,"[2, 1]",stimuli/2011100.jpg,353203,prediction_trial,260,image-keyboard-response,
148,Experiment 2,True,1,True,True,110,2,2,False,True,False,True,001,0.0-237.0,2,1023,[2],stimuli/2110001.jpg,354651,prediction_trial,262,image-keyboard-response,
148,Experiment 2,True,1,True,True,001,1,1,True,True,True,True,100,0.0-239.0,1,690,[1],stimuli/1001100.jpg,355685,prediction_trial,264,image-keyboard-response,
148,Experiment 2,True,1,True,True,000,1,1,False,True,False,True,010,0.0-241.0,1,871,[1],stimuli/1000010.jpg,356889,prediction_trial,266,image-keyboard-response,
148,Experiment 2,False,0,False,False,110,1,1,False,False,True,True,000,0.0-243.0,0,1338,"[1, 0]",stimuli/1110000.jpg,358500,prediction_trial,268,image-keyboard-response,
148,Experiment 2,True,1,True,True,000,2,2,True,True,True,True,110,0.0-245.0,2,488,[2],stimuli/2000110.jpg,359513,prediction_trial,270,image-keyboard-response,
148,Experiment 2,True,1,False,True,010,1,1,False,True,False,True,010,0.0-247.0,1,669,[1],stimuli/1010010.jpg,360455,prediction_trial,272,image-keyboard-response,
148,Experiment 2,True,1,True,True,001,1,1,True,True,True,True,001,0.0-249.0,1,569,[1],stimuli/1001001.jpg,361389,prediction_trial,274,image-keyboard-response,
148,Experiment 2,True,1,True,True,100,1,1,True,True,True,True,101,0.0-251.0,1,588,[1],stimuli/1100101.jpg,362158,prediction_trial,276,image-keyboard-response,
148,Experiment 2,True,1,True,True,101,1,1,False,True,False,True,010,0.0-253.0,1,1297,[1],stimuli/1101010.jpg,363779,prediction_trial,278,image-keyboard-response,
148,Experiment 2,True,1,False,False,011,1,1,False,False,True,True,001,0.0-255.0,1,2017,"[1, 2]",stimuli/1011001.jpg,366067,prediction_trial,280,image-keyboard-response,
148,Experiment 2,False,0,True,True,100,1,1,False,False,False,False,011,0.0-257.0,2,1348,[1],stimuli/1100011.jpg,367759,prediction_trial,282,image-keyboard-response,
148,Experiment 2,False,0,False,False,110,1,0,False,False,False,False,110,0.0-259.0,1,740,"[1, 0]",stimuli/1110110.jpg,368996,prediction_trial,284,image-keyboard-response,
148,Experiment 2,True,1,True,True,000,0,0,True,True,True,True,011,0.0-261.0,0,587,[0],stimuli/0000011.jpg,370140,prediction_trial,286,image-keyboard-response,
148,Experiment 2,True,1,True,True,010,2,2,False,False,False,False,011,0.0-263.0,2,1621,[2],stimuli/2010011.jpg,372155,prediction_trial,288,image-keyboard-response,
148,Experiment 2,True,1,True,True,000,2,2,True,True,True,True,000,0.0-265.0,2,760,[2],stimuli/2000000.jpg,373320,prediction_trial,290,image-keyboard-response,
148,Experiment 2,False,0,False,False,111,0,2,False,False,False,False,110,0.0-267.0,1,1329,"[1, 2, 0]",stimuli/0111110.jpg,374922,prediction_trial,292,image-keyboard-response,
148,Experiment 2,True,1,True,True,001,1,1,True,True,True,True,101,0.0-269.0,1,588,[1],stimuli/1001101.jpg,376258,prediction_trial,294,image-keyboard-response,
148,Experiment 2,False,0,True,True,000,2,2,False,False,False,False,011,0.0-271.0,1,659,[2],stimuli/2000011.jpg,377341,prediction_trial,296,image-keyboard-response,
148,Experiment 2,True,1,True,True,101,1,1,True,True,True,True,100,0.0-273.0,1,527,[1],stimuli/1101100.jpg,378354,prediction_trial,298,image-keyboard-response,
148,Experiment 2,False,0,False,True,010,1,1,False,False,False,False,111,0.0-275.0,2,842,[1],stimuli/1010111.jpg,379479,prediction_trial,300,image-keyboard-response,
148,Experiment 2,True,1,True,True,110,2,2,True,True,True,True,010,0.0-277.0,2,568,[2],stimuli/2110010.jpg,380481,prediction_trial,302,image-keyboard-response,
148,Experiment 2,True,1,True,True,000,0,0,False,False,False,False,101,0.0-279.0,0,852,[0],stimuli/0000101.jpg,381635,prediction_trial,304,image-keyboard-response,
148,Experiment 2,False,0,False,False,101,0,2,False,False,False,False,111,0.0-281.0,1,1257,"[0, 2]",stimuli/0101111.jpg,383287,prediction_trial,306,image-keyboard-response,
148,Experiment 2,True,1,True,True,000,1,1,True,True,True,True,001,0.0-283.0,1,497,[1],stimuli/1000001.jpg,384289,prediction_trial,308,image-keyboard-response,
148,Experiment 2,False,0,False,False,110,1,0,False,False,True,True,001,0.0-285.0,1,1328,"[0, 1]",stimuli/1110001.jpg,385909,prediction_trial,310,image-keyboard-response,
148,Experiment 2,False,0,False,False,101,0,2,False,False,True,True,001,0.0-287.0,0,1250,"[0, 2]",stimuli/0101001.jpg,387534,prediction_trial,312,image-keyboard-response,
148,Experiment 2,False,0,True,True,100,2,2,False,False,False,False,111,0.0-289.0,1,974,[2],stimuli/2100111.jpg,389075,prediction_trial,314,image-keyboard-response,
148,Experiment 2,True,1,True,True,000,0,0,True,True,True,True,000,0.0-291.0,0,557,[0],stimuli/0000000.jpg,390108,prediction_trial,316,image-keyboard-response,
140,Experiment 2,True,1,False,False,111,2,0,False,False,True,True,000,0.0-5.0,0,2467,"[0, 1, 2]",stimuli/2111000.jpg,87565,prediction_trial,30,image-keyboard-response,
140,Experiment 2,True,1,False,False,111,2,2,False,False,True,True,010,0.0-7.0,2,1939,"[1, 2, 0]",stimuli/2111010.jpg,90414,prediction_trial,32,image-keyboard-response,
140,Experiment 2,True,1,False,False,110,0,1,False,False,False,False,111,0.0-9.0,1,5876,"[0, 1]",stimuli/0110111.jpg,97157,prediction_trial,34,image-keyboard-response,
140,Experiment 2,True,1,True,True,100,1,1,True,True,True,True,000,0.0-11.0,1,1272,[1],stimuli/1100000.jpg,99347,prediction_trial,36,image-keyboard-response,
140,Experiment 2,False,0,False,False,111,2,2,False,False,True,True,100,0.0-13.0,0,1783,"[2, 0, 1]",stimuli/2111100.jpg,101587,prediction_trial,38,image-keyboard-response,
140,Experiment 2,True,1,False,True,100,0,0,False,True,True,True,001,0.0-15.0,0,2520,[0],stimuli/0100001.jpg,104901,prediction_trial,40,image-keyboard-response,
140,Experiment 2,False,0,False,False,101,0,2,False,False,False,False,110,0.0-17.0,0,3750,"[0, 2]",stimuli/0101110.jpg,109366,prediction_trial,42,image-keyboard-response,
140,Experiment 2,False,0,False,False,101,0,0,False,False,False,True,100,0.0-19.0,2,3054,"[0, 2]",stimuli/0101100.jpg,113657,prediction_trial,44,image-keyboard-response,
140,Experiment 2,True,1,False,False,011,1,2,False,False,False,False,011,0.0-21.0,2,1260,"[2, 1]",stimuli/1011011.jpg,115638,prediction_trial,46,image-keyboard-response,
140,Experiment 2,True,1,True,True,100,2,2,True,True,True,True,110,0.0-23.0,2,2007,[2],stimuli/2100110.jpg,118339,prediction_trial,48,image-keyboard-response,
140,Experiment 2,True,1,False,False,110,1,0,False,False,False,False,011,0.0-25.0,0,2213,"[1, 0]",stimuli/1110011.jpg,120962,prediction_trial,50,image-keyboard-response,
140,Experiment 2,True,1,True,True,100,1,1,True,True,True,True,101,0.0-27.0,1,1500,[1],stimuli/1100101.jpg,123140,prediction_trial,52,image-keyboard-response,
140,Experiment 2,True,1,False,True,100,0,0,False,True,True,True,011,0.0-29.0,0,1808,[0],stimuli/0100011.jpg,125399,prediction_trial,54,image-keyboard-response,
140,Experiment 2,False,0,False,False,101,0,2,False,False,False,False,101,0.0-31.0,0,1809,"[2, 0]",stimuli/0101101.jpg,127951,prediction_trial,56,image-keyboard-response,
140,Experiment 2,True,1,False,False,101,0,0,False,False,True,True,000,0.0-33.0,0,3659,"[2, 0]",stimuli/0101000.jpg,132252,prediction_trial,58,image-keyboard-response,
140,Experiment 2,False,0,True,True,000,1,1,False,False,False,False,011,0.0-35.0,2,3304,[1],stimuli/1000011.jpg,136175,prediction_trial,60,image-keyboard-response,
140,Experiment 2,True,1,True,True,000,1,1,True,True,True,True,000,0.0-37.0,1,1211,[1],stimuli/1000000.jpg,138319,prediction_trial,62,image-keyboard-response,
140,Experiment 2,False,0,True,True,000,1,1,False,False,False,False,110,0.0-39.0,0,1685,[1],stimuli/1000110.jpg,140524,prediction_trial,64,image-keyboard-response,
140,Experiment 2,False,0,False,False,111,0,2,False,False,True,True,010,0.0-41.0,0,1855,"[2, 1, 0]",stimuli/0111010.jpg,143055,prediction_trial,66,image-keyboard-response,
140,Experiment 2,False,0,False,False,111,1,1,False,False,True,True,000,0.0-43.0,0,1205,"[2, 1, 0]",stimuli/1111000.jpg,145014,prediction_trial,68,image-keyboard-response,
140,Experiment 2,True,1,False,False,111,1,0,False,False,False,False,011,0.0-45.0,0,1074,"[1, 2, 0]",stimuli/1111011.jpg,146740,prediction_trial,70,image-keyboard-response,
140,Experiment 2,True,1,False,True,010,1,1,False,True,True,True,101,0.0-47.0,1,2680,[1],stimuli/1010101.jpg,149981,prediction_trial,72,image-keyboard-response,
140,Experiment 2,True,1,True,True,010,2,2,True,True,True,True,010,0.0-49.0,2,1103,[2],stimuli/2010010.jpg,152449,prediction_trial,74,image-keyboard-response,
140,Experiment 2,True,1,True,True,101,1,1,True,True,True,True,000,0.0-51.0,1,1000,[1],stimuli/1101000.jpg,153860,prediction_trial,76,image-keyboard-response,
