workerid,proliferate.condition,accuracy,accuracy_bool,age,alter_ball_visible,alter_can_infer,alter_occluders,ball_pos,bonus,character_choice,collective_ball_visible,collective_can_infer,correct_response,ego_ball_visible,ego_can_infer,ego_occluders,ethnicity,failed_audio,failed_images,failed_video,feedback,gender,internal_node_id,overall_accuracy,race,response,rt,search_locations,stimulus,stimulus_dict,success,time_elapsed,timeout,trial,trial_index,trial_type,view_history,error
133,Experiment 2,,,,,,,,,,,,,,,,,[],[],[],,,0.0-0.0,,,,,,,,True,4020,False,,0,preload,,
133,Experiment 2,,,,,,,,,,,,,,,,,,,,,,0.0-1.0,,,,,,,,True,6140,,,1,fullscreen,,
133,Experiment 2,,,,,,,,,,,,,,,,,,,,,,0.0-2.0,,,0,1879,,"<p><b>Consent Form</b></p> <div style=""text-align:left;background-color:lightgrey; padding:20px; max-width:900px;""><p>Please consider this information carefully before deciding whether to participate in this research.</p> <p>The purpose of this research is to examine which factors influence social judgment and decision-making. You will be asked to make judgements about individuals and actions in social scenarios. We are simply interested in your judgement. The study will take less than 1 hour to complete, and you will receive less than $20 on Prolific. Your compensation and time commitment are specified in the study description. There are no anticipated risks associated with participating in this study. The effects of participating should be comparable to those you would ordinarily experience from viewing a computer monitor and using a mouse or keyboard for a similar amount of time. At the end of the study, we will provide an explanation of the questions that motivate this line of research and will describe the potential implications. </p><p> Your participation in this study is completely voluntary and you may refuse to participate or you may choose to withdraw at any time without penalty or loss of benefits to you which are otherwise entitled. Your participation in this study will remain confidential. No personally identifiable information will be associated with your data. Also, all analyses of the data will be averaged across all the participants, so your individual responses will never be specifically analyzed. </p><p> If you have questions or concerns about your participation or payment, or want to request a summary of research findings, please contact Dr. Jonathan Phillips at Jonathan.S.Phillips@dartmouth.edu. </p><p> Please save a copy of this form for your records. </p><p><b>Agreement: </b>The nature and purpose of this research have been sufficiently explained and I agree to participate in this study. I understand that I am free to withdraw at any time without incurring any penalty. Please consent by clicking the button below to continue. Otherwise, please exit the study at any time. </p>",,,8022,,,2,html-button-response,,
133,Experiment 2,,,,,,,,,,,,,,,,,,,,,,0.0-3.0-0.0,,,,67844,,,,,75866,,intro,3,instructions,"[{'page_index': 0, 'viewing_time': 1539}, {'page_index': 1, 'viewing_time': 2100}, {'page_index': 2, 'viewing_time': 2216}, {'page_index': 3, 'viewing_time': 5840}, {'page_index': 4, 'viewing_time': 3200}, {'page_index': 5, 'viewing_time': 3196}, {'page_index': 6, 'viewing_time': 4296}, {'page_index': 7, 'viewing_time': 4448}, {'page_index': 8, 'viewing_time': 4304}, {'page_index': 9, 'viewing_time': 2972}, {'page_index': 10, 'viewing_time': 16512}, {'page_index': 11, 'viewing_time': 10799}, {'page_index': 12, 'viewing_time': 5121}, {'page_index': 13, 'viewing_time': 1300}]",
133,Experiment 2,False,,,,,,,,0,,,,,,,,,,,,,0.0-3.0-1.0,,,2,5551,,stimuli/2101010.jpg,"{'ball_pos': 2, 'filepath': 'stimuli/2101010.jpg', 'ego_can_infer': True, 'ego_occluders': '010', 'alter_can_infer': False, 'alter_occluders': '101', 'ego_ball_visible': True, 'search_locations': [2, 0], 'alter_ball_visible': False, 'collective_can_infer': False, 'collective_ball_visible': False}",,81432,,prediction_practice,4,image-keyboard-response,,
133,Experiment 2,,,,,,,,,2,,,,,,,,,,,,,0.0-3.0-2.0,,, ,2029,,stimuli/21010100.jpg,,,83466,,practrice_feedback,5,image-keyboard-response,,
133,Experiment 2,False,,,,,,,,0,,,,,,,,,,,,,0.0-3.0-3.0,,,1,1901,,stimuli/1110000.jpg,"{'ball_pos': 1, 'filepath': 'stimuli/1110000.jpg', 'ego_can_infer': True, 'ego_occluders': '000', 'alter_can_infer': False, 'alter_occluders': '110', 'ego_ball_visible': True, 'search_locations': [1, 0], 'alter_ball_visible': False, 'collective_can_infer': False, 'collective_ball_visible': False}",,85369,,prediction_practice,6,image-keyboard-response,,
133,Experiment 2,,,,,,,,,1,,,,,,,,,,,,,0.0-3.0-4.0,,, ,2087,,stimuli/11100000.jpg,,,87458,,practrice_feedback,7,image-keyboard-response,,
133,Experiment 2,True,,,,,,,,0,,,,,,,,,,,,,0.0-3.0-5.0,,,0,7666,,stimuli/2111101.jpg,"{'ball_pos': 2, 'filepath': 'stimuli/2111101.jpg', 'ego_can_infer': False, 'ego_occluders': '101', 'alter_can_infer': False, 'alter_occluders': '111', 'ego_ball_visible': False, 'search_locations': [1, 0, 2], 'alter_ball_visible': False, 'collective_can_infer': False, 'collective_ball_visible': False}",,95127,,prediction_practice,8,image-keyboard-response,,
133,Experiment 2,,,,,,,,,1,,,,,,,,,,,,,0.0-3.0-6.0,,, ,2566,,stimuli/21111010.jpg,,,97697,,practrice_feedback,9,image-keyboard-response,,
133,Experiment 2,True,,,,,,,,2,,,,,,,,,,,,,0.0-3.0-7.0,,,2,1614,,stimuli/2010110.jpg,"{'ball_pos': 2, 'filepath': 'stimuli/2010110.jpg', 'ego_can_infer': True, 'ego_occluders': '110', 'alter_can_infer': True, 'alter_occluders': '010', 'ego_ball_visible': True, 'search_locations': [2], 'alter_ball_visible': True, 'collective_can_infer': True, 'collective_ball_visible': True}",,99312,,prediction_practice,10,image-keyboard-response,,
133,Experiment 2,,,,,,,,,2,,,,,,,,,,,,,0.0-3.0-8.0,,, ,1162,,stimuli/20101102.jpg,,,100476,,practrice_feedback,11,image-keyboard-response,,
133,Experiment 2,True,,,,,,,,0,,,,,,,,,,,,,0.0-3.0-9.0,,,0,1085,,stimuli/0001000.jpg,"{'ball_pos': 0, 'filepath': 'stimuli/0001000.jpg', 'ego_can_infer': True, 'ego_occluders': '000', 'alter_can_infer': True, 'alter_occluders': '001', 'ego_ball_visible': True, 'search_locations': [0], 'alter_ball_visible': True, 'collective_can_infer': True, 'collective_ball_visible': True}",,101563,,prediction_practice,12,image-keyboard-response,,
133,Experiment 2,,,,,,,,,0,,,,,,,,,,,,,0.0-3.0-10.0,,, ,2276,,stimuli/00010000.jpg,,,103842,,practrice_feedback,13,image-keyboard-response,,
133,Experiment 2,True,,,,,,,,0,,,,,,,,,,,,,0.0-3.0-11.0,,,0,2498,,stimuli/0110010.jpg,"{'ball_pos': 0, 'filepath': 'stimuli/0110010.jpg', 'ego_can_infer': True, 'ego_occluders': '010', 'alter_can_infer': False, 'alter_occluders': '110', 'ego_ball_visible': True, 'search_locations': [0, 1], 'alter_ball_visible': False, 'collective_can_infer': False, 'collective_ball_visible': False}",,106342,,prediction_practice,14,image-keyboard-response,,
133,Experiment 2,,,,,,,,,0,,,,,,,,,,,,,0.0-3.0-12.0,,, ,1185,,stimuli/01100100.jpg,,,107530,,practrice_feedback,15,image-keyboard-response,,
133,Experiment 2,True,,,,,,,,0,,,,,,,,,,,,,0.0-3.0-13.0,,,0,2052,,stimuli/1111111.jpg,"{'ball_pos': 1, 'filepath': 'stimuli/1111111.jpg', 'ego_can_infer': False, 'ego_occluders': '111', 'alter_can_infer': False, 'alter_occluders': '111', 'ego_ball_visible': False, 'search_locations': [1, 0, 2], 'alter_ball_visible': False, 'collective_can_infer': False, 'collective_ball_visible': False}",,109586,,prediction_practice,16,image-keyboard-response,,
133,Experiment 2,,,,,,,,,1,,,,,,,,,,,,,0.0-3.0-14.0,,, ,1102,,stimuli/11111110.jpg,,,110690,,practrice_feedback,17,image-keyboard-response,,
133,Experiment 2,False,,,,,,,,1,,,,,,,,,,,,,0.0-3.0-15.0,,,0,1454,,stimuli/0110110.jpg,"{'ball_pos': 0, 'filepath': 'stimuli/0110110.jpg', 'ego_can_infer': False, 'ego_occluders': '110', 'alter_can_infer': False, 'alter_occluders': '110', 'ego_ball_visible': False, 'search_locations': [0, 1], 'alter_ball_visible': False, 'collective_can_infer': False, 'collective_ball_visible': False}",,112146,,prediction_practice,18,image-keyboard-response,,
133,Experiment 2,,,,,,,,,0,,,,,,,,,,,,,0.0-3.0-16.0,,, ,1236,,stimuli/01101101.jpg,,,113386,,practrice_feedback,19,image-keyboard-response,,
133,Experiment 2,True,,,,,,,,1,,,,,,,,,,,,,0.0-3.0-17.0,,,1,1054,,stimuli/1100001.jpg,"{'ball_pos': 1, 'filepath': 'stimuli/1100001.jpg', 'ego_can_infer': True, 'ego_occluders': '001', 'alter_can_infer': True, 'alter_occluders': '100', 'ego_ball_visible': True, 'search_locations': [1], 'alter_ball_visible': True, 'collective_can_infer': True, 'collective_ball_visible': True}",,114442,,prediction_practice,20,image-keyboard-response,,
133,Experiment 2,,,,,,,,,1,,,,,,,,,,,,,0.0-3.0-18.0,,, ,949,,stimuli/11000011.jpg,,,115393,,practrice_feedback,21,image-keyboard-response,,
133,Experiment 2,False,,,,,,,,2,,,,,,,,,,,,,0.0-3.0-19.0,,,1,4385,,stimuli/2001011.jpg,"{'ball_pos': 2, 'filepath': 'stimuli/2001011.jpg', 'ego_can_infer': False, 'ego_occluders': '011', 'alter_can_infer': True, 'alter_occluders': '001', 'ego_ball_visible': False, 'search_locations': [2], 'alter_ball_visible': False, 'collective_can_infer': False, 'collective_ball_visible': False}",,119780,,prediction_practice,22,image-keyboard-response,,
133,Experiment 2,,,,,,,,,2,,,,,,,,,,,,,0.0-3.0-20.0,,, ,1028,,stimuli/20010112.jpg,,,120809,,practrice_feedback,23,image-keyboard-response,,
133,Experiment 2,,,,,,,,,,,,,,,,,,,,,,0.0-3.0-21.0,,,0,6834,,"Now that you've had some practice, you'll be tested with a couple of easy trials. If you correctly predict Sam's choice, you'll move on to complete the experiment!",,,127646,,,24,html-button-response,,
133,Experiment 2,True,,,,,,,,,,,arrowleft,,,,,,,,,,0.0-3.0-22.0-0.0,,,arrowleft,1122,,stimuli/0000011.jpg,,,128770,,comprehension_quiz,25,image-keyboard-response,,
133,Experiment 2,True,,,,,,,,,,, ,,,,,,,,,,0.0-3.0-22.0-1.0,,, ,980,,stimuli/00000110.jpg,,,129754,,comprehension_quiz,26,image-keyboard-response,,
133,Experiment 2,True,,,,,,,,,,,arrowdown,,,,,,,,,,0.0-3.0-22.0-2.0,,,arrowdown,2587,,stimuli/1010010.jpg,,,132343,,comprehension_quiz,27,image-keyboard-response,,
133,Experiment 2,True,,,,,,,,,,, ,,,,,,,,,,0.0-3.0-22.0-3.0,,, ,975,,stimuli/10100101.jpg,,,133321,,comprehension_quiz,28,image-keyboard-response,,
133,Experiment 2,,,,,,,,,,,,,,,,,,,,,,0.0-4.0,,,0,2059,,The experiment will now begin.,,,135381,,,29,html-button-response,,
133,Experiment 2,False,0,,False,False,111,2,,2,False,False,,True,True,010,,,,,,,0.0-5.0,,,0,5475,"[2, 0, 1]",stimuli/2111010.jpg,,,140858,,prediction_trial,30,image-keyboard-response,,
133,Experiment 2,,,,,,,,,2,,,,,,,,,,,,,0.0-6.0,,, ,1387,,stimuli/21110102.jpg,,,142248,,feedback_trial,31,image-keyboard-response,,
133,Experiment 2,False,0,,True,True,100,2,,2,False,False,,False,False,011,,,,,,,0.0-7.0,,,1,3850,[2],stimuli/2100011.jpg,,,146099,,prediction_trial,32,image-keyboard-response,,
133,Experiment 2,,,,,,,,,2,,,,,,,,,,,,,0.0-8.0,,, ,534,,stimuli/21000112.jpg,,,146634,,feedback_trial,33,image-keyboard-response,,
133,Experiment 2,True,1,,True,True,000,0,,0,False,False,,False,False,101,,,,,,,0.0-9.0,,,0,2094,[0],stimuli/0000101.jpg,,,148731,,prediction_trial,34,image-keyboard-response,,
133,Experiment 2,,,,,,,,,0,,,,,,,,,,,,,0.0-10.0,,, ,779,,stimuli/00001010.jpg,,,149538,,feedback_trial,35,image-keyboard-response,,
133,Experiment 2,True,1,,True,True,001,0,,0,False,True,,False,True,100,,,,,,,0.0-11.0,,,0,3653,[0],stimuli/0001100.jpg,,,153194,,prediction_trial,36,image-keyboard-response,,
133,Experiment 2,,,,,,,,,0,,,,,,,,,,,,,0.0-12.0,,, ,847,,stimuli/00011000.jpg,,,154044,,feedback_trial,37,image-keyboard-response,,
133,Experiment 2,True,1,,True,True,011,0,,0,True,True,,True,True,010,,,,,,,0.0-13.0,,,0,994,[0],stimuli/0011010.jpg,,,155041,,prediction_trial,38,image-keyboard-response,,
133,Experiment 2,,,,,,,,,0,,,,,,,,,,,,,0.0-14.0,,, ,735,,stimuli/00110100.jpg,,,155777,,feedback_trial,39,image-keyboard-response,,
133,Experiment 2,True,1,,True,True,101,1,,1,True,True,,True,True,100,,,,,,,0.0-15.0,,,1,915,[1],stimuli/1101100.jpg,,,156694,,prediction_trial,40,image-keyboard-response,,
133,Experiment 2,,,,,,,,,1,,,,,,,,,,,,,0.0-16.0,,, ,727,,stimuli/11011001.jpg,,,157441,,feedback_trial,41,image-keyboard-response,,
133,Experiment 2,True,1,,False,False,011,1,,2,False,False,,False,False,011,,,,,,,0.0-17.0,,,2,2541,"[1, 2]",stimuli/1011011.jpg,,,159985,,prediction_trial,42,image-keyboard-response,,
133,Experiment 2,,,,,,,,,1,,,,,,,,,,,,,0.0-18.0,,, ,850,,stimuli/10110112.jpg,,,160839,,feedback_trial,43,image-keyboard-response,,
133,Experiment 2,False,0,,False,False,110,1,,0,False,False,,True,True,000,,,,,,,0.0-19.0,,,1,1721,"[1, 0]",stimuli/1110000.jpg,,,162562,,prediction_trial,44,image-keyboard-response,,
133,Experiment 2,,,,,,,,,1,,,,,,,,,,,,,0.0-20.0,,, ,644,,stimuli/11100000.jpg,,,163209,,feedback_trial,45,image-keyboard-response,,
133,Experiment 2,True,1,,True,True,001,0,,0,False,False,,False,False,111,,,,,,,0.0-21.0,,,0,3375,[0],stimuli/0001111.jpg,,,166586,,prediction_trial,46,image-keyboard-response,,
133,Experiment 2,,,,,,,,,0,,,,,,,,,,,,,0.0-22.0,,, ,794,,stimuli/00011110.jpg,,,167382,,feedback_trial,47,image-keyboard-response,,
133,Experiment 2,False,0,,True,True,101,1,,1,False,False,,False,False,110,,,,,,,0.0-23.0,,,0,3538,[1],stimuli/1101110.jpg,,,170922,,prediction_trial,48,image-keyboard-response,,
133,Experiment 2,,,,,,,,,1,,,,,,,,,,,,,0.0-24.0,,, ,661,,stimuli/11011101.jpg,,,171586,,feedback_trial,49,image-keyboard-response,,
133,Experiment 2,False,0,,False,False,110,0,,1,False,False,,False,False,111,,,,,,,0.0-25.0,,,0,1941,"[1, 0]",stimuli/0110111.jpg,,,173530,,prediction_trial,50,image-keyboard-response,,
133,Experiment 2,,,,,,,,,1,,,,,,,,,,,,,0.0-26.0,,, ,585,,stimuli/01101111.jpg,,,174138,,feedback_trial,51,image-keyboard-response,,
133,Experiment 2,True,1,,True,True,101,1,,1,False,True,,False,True,010,,,,,,,0.0-27.0,,,1,2917,[1],stimuli/1101010.jpg,,,177058,,prediction_trial,52,image-keyboard-response,,
133,Experiment 2,,,,,,,,,1,,,,,,,,,,,,,0.0-28.0,,, ,666,,stimuli/11010101.jpg,,,177727,,feedback_trial,53,image-keyboard-response,,
133,Experiment 2,True,1,,True,True,100,2,,2,True,True,,True,True,100,,,,,,,0.0-29.0,,,2,1122,[2],stimuli/2100100.jpg,,,178851,,prediction_trial,54,image-keyboard-response,,
133,Experiment 2,,,,,,,,,2,,,,,,,,,,,,,0.0-30.0,,, ,716,,stimuli/21001002.jpg,,,179570,,feedback_trial,55,image-keyboard-response,,
133,Experiment 2,False,0,,False,False,101,0,,0,False,False,,False,False,110,,,,,,,0.0-31.0,,,1,1743,"[2, 0]",stimuli/0101110.jpg,,,181315,,prediction_trial,56,image-keyboard-response,,
133,Experiment 2,,,,,,,,,2,,,,,,,,,,,,,0.0-32.0,,, ,565,,stimuli/01011100.jpg,,,181882,,feedback_trial,57,image-keyboard-response,,
133,Experiment 2,False,0,,False,False,101,2,,2,False,False,,False,False,111,,,,,,,0.0-33.0,,,0,1933,"[0, 2]",stimuli/2101111.jpg,,,183818,,prediction_trial,58,image-keyboard-response,,
133,Experiment 2,,,,,,,,,0,,,,,,,,,,,,,0.0-34.0,,, ,620,,stimuli/21011112.jpg,,,184440,,feedback_trial,59,image-keyboard-response,,
133,Experiment 2,False,0,,False,False,111,1,,1,False,False,,False,False,111,,,,,,,0.0-35.0,,,0,1089,"[1, 0, 2]",stimuli/1111111.jpg,,,185530,,prediction_trial,60,image-keyboard-response,,
133,Experiment 2,,,,,,,,,1,,,,,,,,,,,,,0.0-36.0,,, ,589,,stimuli/11111111.jpg,,,186122,,feedback_trial,61,image-keyboard-response,,
133,Experiment 2,True,1,,True,True,110,2,,2,True,True,,True,True,000,,,,,,,0.0-37.0,,,2,1110,[2],stimuli/2110000.jpg,,,187234,,prediction_trial,62,image-keyboard-response,,
133,Experiment 2,,,,,,,,,2,,,,,,,,,,,,,0.0-38.0,,, ,823,,stimuli/21100002.jpg,,,188087,,feedback_trial,63,image-keyboard-response,,
133,Experiment 2,False,0,,False,False,011,2,,2,False,False,,False,False,101,,,,,,,0.0-39.0,,,0,3487,"[1, 2]",stimuli/2011101.jpg,,,191578,,prediction_trial,64,image-keyboard-response,,
133,Experiment 2,,,,,,,,,1,,,,,,,,,,,,,0.0-40.0,,, ,668,,stimuli/20111012.jpg,,,192248,,feedback_trial,65,image-keyboard-response,,
133,Experiment 2,True,1,,True,True,100,1,,1,False,False,,False,False,111,,,,,,,0.0-41.0,,,1,1553,[1],stimuli/1100111.jpg,,,193803,,prediction_trial,66,image-keyboard-response,,
133,Experiment 2,,,,,,,,,1,,,,,,,,,,,,,0.0-42.0,,, ,660,,stimuli/11001111.jpg,,,194466,,feedback_trial,67,image-keyboard-response,,
133,Experiment 2,True,1,,False,True,010,1,,1,False,True,,True,True,101,,,,,,,0.0-43.0,,,1,1829,[1],stimuli/1010101.jpg,,,196298,,prediction_trial,68,image-keyboard-response,,
133,Experiment 2,,,,,,,,,1,,,,,,,,,,,,,0.0-44.0,,, ,538,,stimuli/10101011.jpg,,,196868,,feedback_trial,69,image-keyboard-response,,
133,Experiment 2,True,1,,False,True,100,0,,0,False,True,,True,True,001,,,,,,,0.0-45.0,,,0,2333,[0],stimuli/0100001.jpg,,,199204,,prediction_trial,70,image-keyboard-response,,
133,Experiment 2,,,,,,,,,0,,,,,,,,,,,,,0.0-46.0,,, ,659,,stimuli/01000010.jpg,,,199865,,feedback_trial,71,image-keyboard-response,,
133,Experiment 2,True,1,,True,True,110,2,,2,False,False,,False,False,011,,,,,,,0.0-47.0,,,2,1628,[2],stimuli/2110011.jpg,,,201496,,prediction_trial,72,image-keyboard-response,,
133,Experiment 2,,,,,,,,,2,,,,,,,,,,,,,0.0-48.0,,, ,688,,stimuli/21100112.jpg,,,202185,,feedback_trial,73,image-keyboard-response,,
133,Experiment 2,True,1,,True,True,100,1,,1,False,True,,False,True,010,,,,,,,0.0-49.0,,,1,3008,[1],stimuli/1100010.jpg,,,205194,,prediction_trial,74,image-keyboard-response,,
133,Experiment 2,,,,,,,,,1,,,,,,,,,,,,,0.0-50.0,,, ,685,,stimuli/11000101.jpg,,,205882,,feedback_trial,75,image-keyboard-response,,
133,Experiment 2,False,0,,True,True,001,0,,0,False,False,,False,False,101,,,,,,,0.0-51.0,,,2,2244,[0],stimuli/0001101.jpg,,,208154,,prediction_trial,76,image-keyboard-response,,
133,Experiment 2,,,,,,,,,0,,,,,,,,,,,,,0.0-52.0,,, ,789,,stimuli/00011010.jpg,,,208945,,feedback_trial,77,image-keyboard-response,,
133,Experiment 2,True,1,,False,False,110,1,,0,False,False,,False,False,011,,,,,,,0.0-53.0,,,0,1923,"[0, 1]",stimuli/1110011.jpg,,,210871,,prediction_trial,78,image-keyboard-response,,
133,Experiment 2,,,,,,,,,0,,,,,,,,,,,,,0.0-54.0,,, ,727,,stimuli/11100110.jpg,,,211601,,feedback_trial,79,image-keyboard-response,,
133,Experiment 2,False,0,,True,True,001,1,,1,False,False,,False,False,110,,,,,,,0.0-55.0,,,0,1335,[1],stimuli/1001110.jpg,,,212937,,prediction_trial,80,image-keyboard-response,,
133,Experiment 2,,,,,,,,,1,,,,,,,,,,,,,0.0-56.0,,, ,566,,stimuli/10011101.jpg,,,213506,,feedback_trial,81,image-keyboard-response,,
133,Experiment 2,True,1,,False,False,101,0,,0,False,False,,False,False,101,,,,,,,0.0-57.0,,,0,1850,"[2, 0]",stimuli/0101101.jpg,,,215385,,prediction_trial,82,image-keyboard-response,,
133,Experiment 2,,,,,,,,,2,,,,,,,,,,,,,0.0-58.0,,, ,645,,stimuli/01011010.jpg,,,216033,,feedback_trial,83,image-keyboard-response,,
133,Experiment 2,False,0,,False,True,010,1,,1,False,False,,False,False,110,,,,,,,0.0-59.0,,,0,2286,[1],stimuli/1010110.jpg,,,218322,,prediction_trial,84,image-keyboard-response,,
133,Experiment 2,,,,,,,,,1,,,,,,,,,,,,,0.0-60.0,,, ,573,,stimuli/10101101.jpg,,,218897,,feedback_trial,85,image-keyboard-response,,
133,Experiment 2,True,1,,True,True,001,1,,1,False,False,,False,False,111,,,,,,,0.0-61.0,,,1,2523,[1],stimuli/1001111.jpg,,,221422,,prediction_trial,86,image-keyboard-response,,
133,Experiment 2,,,,,,,,,1,,,,,,,,,,,,,0.0-62.0,,, ,577,,stimuli/10011111.jpg,,,222002,,feedback_trial,87,image-keyboard-response,,
133,Experiment 2,False,0,,True,True,001,1,,1,False,False,,False,False,011,,,,,,,0.0-63.0,,,2,2723,[1],stimuli/1001011.jpg,,,224755,,prediction_trial,88,image-keyboard-response,,
133,Experiment 2,,,,,,,,,1,,,,,,,,,,,,,0.0-64.0,,, ,612,,stimuli/10010111.jpg,,,225369,,feedback_trial,89,image-keyboard-response,,
133,Experiment 2,False,0,,False,False,111,1,,2,False,False,,False,False,110,,,,,,,0.0-65.0,,,1,2245,"[2, 1, 0]",stimuli/1111110.jpg,,,227618,,prediction_trial,90,image-keyboard-response,,
133,Experiment 2,,,,,,,,,2,,,,,,,,,,,,,0.0-66.0,,, ,4153,,stimuli/11111102.jpg,,,231774,,feedback_trial,91,image-keyboard-response,,
133,Experiment 2,False,0,,False,False,111,2,,1,False,False,,True,True,110,,,,,,,0.0-67.0,,,2,2322,"[1, 2, 0]",stimuli/2111110.jpg,,,234099,,prediction_trial,92,image-keyboard-response,,
133,Experiment 2,,,,,,,,,1,,,,,,,,,,,,,0.0-68.0,,, ,539,,stimuli/21111101.jpg,,,234640,,feedback_trial,93,image-keyboard-response,,
133,Experiment 2,True,1,,False,False,111,0,,0,False,False,,True,True,011,,,,,,,0.0-69.0,,,0,1218,"[1, 0, 2]",stimuli/0111011.jpg,,,235873,,prediction_trial,94,image-keyboard-response,,
133,Experiment 2,,,,,,,,,1,,,,,,,,,,,,,0.0-70.0,,, ,766,,stimuli/01110110.jpg,,,236640,,feedback_trial,95,image-keyboard-response,,
133,Experiment 2,True,1,,False,False,110,0,,0,False,False,,True,True,000,,,,,,,0.0-71.0,,,0,1856,"[0, 1]",stimuli/0110000.jpg,,,238497,,prediction_trial,96,image-keyboard-response,,
133,Experiment 2,,,,,,,,,0,,,,,,,,,,,,,0.0-72.0,,, ,645,,stimuli/01100000.jpg,,,239145,,feedback_trial,97,image-keyboard-response,,
133,Experiment 2,True,1,,False,True,010,1,,1,False,True,,True,True,000,,,,,,,0.0-73.0,,,1,1444,[1],stimuli/1010000.jpg,,,240592,,prediction_trial,98,image-keyboard-response,,
133,Experiment 2,,,,,,,,,1,,,,,,,,,,,,,0.0-74.0,,, ,584,,stimuli/10100001.jpg,,,241178,,feedback_trial,99,image-keyboard-response,,
133,Experiment 2,True,1,,True,True,101,1,,1,True,True,,True,True,001,,,,,,,0.0-75.0,,,1,1323,[1],stimuli/1101001.jpg,,,242534,,prediction_trial,100,image-keyboard-response,,
133,Experiment 2,,,,,,,,,1,,,,,,,,,,,,,0.0-76.0,,, ,585,,stimuli/11010011.jpg,,,243122,,feedback_trial,101,image-keyboard-response,,
133,Experiment 2,True,1,,True,True,000,0,,0,True,True,,True,True,000,,,,,,,0.0-77.0,,,0,1107,[0],stimuli/0000000.jpg,,,244232,,prediction_trial,102,image-keyboard-response,,
133,Experiment 2,,,,,,,,,0,,,,,,,,,,,,,0.0-78.0,,, ,615,,stimuli/00000000.jpg,,,244849,,feedback_trial,103,image-keyboard-response,,
133,Experiment 2,True,1,,True,True,000,2,,2,False,True,,False,True,001,,,,,,,0.0-79.0,,,2,1063,[2],stimuli/2000001.jpg,,,245914,,prediction_trial,104,image-keyboard-response,,
133,Experiment 2,,,,,,,,,2,,,,,,,,,,,,,0.0-80.0,,, ,764,,stimuli/20000012.jpg,,,246680,,feedback_trial,105,image-keyboard-response,,
133,Experiment 2,True,1,,True,True,011,0,,0,False,False,,False,False,110,,,,,,,0.0-81.0,,,0,3272,[0],stimuli/0011110.jpg,,,249954,,prediction_trial,106,image-keyboard-response,,
133,Experiment 2,,,,,,,,,0,,,,,,,,,,,,,0.0-82.0,,, ,586,,stimuli/00111100.jpg,,,250569,,feedback_trial,107,image-keyboard-response,,
133,Experiment 2,False,0,,True,True,000,2,,2,False,False,,False,False,011,,,,,,,0.0-83.0,,,1,2643,[2],stimuli/2000011.jpg,,,253215,,prediction_trial,108,image-keyboard-response,,
133,Experiment 2,,,,,,,,,2,,,,,,,,,,,,,0.0-84.0,,, ,736,,stimuli/20000112.jpg,,,253954,,feedback_trial,109,image-keyboard-response,,
133,Experiment 2,False,0,,True,True,110,2,,2,False,False,,False,False,101,,,,,,,0.0-85.0,,,0,2118,[2],stimuli/2110101.jpg,,,256074,,prediction_trial,110,image-keyboard-response,,
133,Experiment 2,,,,,,,,,2,,,,,,,,,,,,,0.0-86.0,,, ,596,,stimuli/21101012.jpg,,,256674,,feedback_trial,111,image-keyboard-response,,
133,Experiment 2,False,0,,False,False,011,1,,2,False,False,,True,True,000,,,,,,,0.0-87.0,,,1,1285,"[1, 2]",stimuli/1011000.jpg,,,257962,,prediction_trial,112,image-keyboard-response,,
133,Experiment 2,,,,,,,,,1,,,,,,,,,,,,,0.0-88.0,,, ,498,,stimuli/10110002.jpg,,,258491,,feedback_trial,113,image-keyboard-response,,
133,Experiment 2,True,1,,False,True,100,0,,0,False,True,,False,True,100,,,,,,,0.0-89.0,,,0,1924,[0],stimuli/0100100.jpg,,,260418,,prediction_trial,114,image-keyboard-response,,
133,Experiment 2,,,,,,,,,0,,,,,,,,,,,,,0.0-90.0,,, ,719,,stimuli/01001000.jpg,,,261139,,feedback_trial,115,image-keyboard-response,,
133,Experiment 2,True,1,,True,True,011,0,,0,True,True,,True,True,011,,,,,,,0.0-91.0,,,0,828,[0],stimuli/0011011.jpg,,,261970,,prediction_trial,116,image-keyboard-response,,
133,Experiment 2,,,,,,,,,0,,,,,,,,,,,,,0.0-92.0,,, ,566,,stimuli/00110110.jpg,,,262539,,feedback_trial,117,image-keyboard-response,,
133,Experiment 2,True,1,,False,True,100,0,,0,False,True,,True,True,000,,,,,,,0.0-93.0,,,0,1064,[0],stimuli/0100000.jpg,,,263605,,prediction_trial,118,image-keyboard-response,,
133,Experiment 2,,,,,,,,,0,,,,,,,,,,,,,0.0-94.0,,, ,515,,stimuli/01000000.jpg,,,264123,,feedback_trial,119,image-keyboard-response,,
133,Experiment 2,False,0,,False,False,101,2,,0,False,False,,True,True,100,,,,,,,0.0-95.0,,,2,1116,"[0, 2]",stimuli/2101100.jpg,,,265258,,prediction_trial,120,image-keyboard-response,,
133,Experiment 2,,,,,,,,,0,,,,,,,,,,,,,0.0-96.0,,, ,581,,stimuli/21011000.jpg,,,265841,,feedback_trial,121,image-keyboard-response,,
133,Experiment 2,True,1,,True,True,000,1,,1,True,True,,True,True,101,,,,,,,0.0-97.0,,,1,862,[1],stimuli/1000101.jpg,,,266706,,prediction_trial,122,image-keyboard-response,,
133,Experiment 2,,,,,,,,,1,,,,,,,,,,,,,0.0-98.0,,, ,589,,stimuli/10001011.jpg,,,267298,,feedback_trial,123,image-keyboard-response,,
133,Experiment 2,False,0,,False,False,011,2,,1,False,False,,False,True,001,,,,,,,0.0-99.0,,,2,2405,"[2, 1]",stimuli/2011001.jpg,,,269706,,prediction_trial,124,image-keyboard-response,,
133,Experiment 2,,,,,,,,,2,,,,,,,,,,,,,0.0-100.0,,, ,525,,stimuli/20110011.jpg,,,270233,,feedback_trial,125,image-keyboard-response,,
133,Experiment 2,False,0,,True,True,010,0,,0,False,False,,False,False,110,,,,,,,0.0-101.0,,,1,1778,[0],stimuli/0010110.jpg,,,272042,,prediction_trial,126,image-keyboard-response,,
133,Experiment 2,,,,,,,,,0,,,,,,,,,,,,,0.0-102.0,,, ,549,,stimuli/00101100.jpg,,,272594,,feedback_trial,127,image-keyboard-response,,
133,Experiment 2,True,1,,False,False,011,1,,1,False,False,,False,True,010,,,,,,,0.0-103.0,,,1,2914,"[2, 1]",stimuli/1011010.jpg,,,275511,,prediction_trial,128,image-keyboard-response,,
133,Experiment 2,,,,,,,,,2,,,,,,,,,,,,,0.0-104.0,,, ,776,,stimuli/10110101.jpg,,,276291,,feedback_trial,129,image-keyboard-response,,
133,Experiment 2,False,0,,False,True,100,0,,0,False,False,,False,False,111,,,,,,,0.0-105.0,,,1,1565,[0],stimuli/0100111.jpg,,,277858,,prediction_trial,130,image-keyboard-response,,
133,Experiment 2,,,,,,,,,0,,,,,,,,,,,,,0.0-106.0,,, ,476,,stimuli/01001110.jpg,,,278337,,feedback_trial,131,image-keyboard-response,,
133,Experiment 2,False,0,,True,True,010,2,,2,False,False,,False,False,111,,,,,,,0.0-107.0,,,1,2071,[2],stimuli/2010111.jpg,,,280410,,prediction_trial,132,image-keyboard-response,,
133,Experiment 2,,,,,,,,,2,,,,,,,,,,,,,0.0-108.0,,, ,476,,stimuli/20101112.jpg,,,280888,,feedback_trial,133,image-keyboard-response,,
133,Experiment 2,True,1,,False,False,110,1,,1,False,False,,True,True,100,,,,,,,0.0-109.0,,,1,1588,"[1, 0]",stimuli/1110100.jpg,,,282488,,prediction_trial,134,image-keyboard-response,,
133,Experiment 2,,,,,,,,,1,,,,,,,,,,,,,0.0-110.0,,, ,513,,stimuli/11101001.jpg,,,283002,,feedback_trial,135,image-keyboard-response,,
133,Experiment 2,True,1,,True,True,001,1,,1,True,True,,True,True,101,,,,,,,0.0-111.0,,,1,773,[1],stimuli/1001101.jpg,,,283778,,prediction_trial,136,image-keyboard-response,,
133,Experiment 2,,,,,,,,,1,,,,,,,,,,,,,0.0-112.0,,, ,413,,stimuli/10011011.jpg,,,284193,,feedback_trial,137,image-keyboard-response,,
133,Experiment 2,False,0,,True,True,100,1,,1,False,False,,False,False,011,,,,,,,0.0-113.0,,,2,2356,[1],stimuli/1100011.jpg,,,286551,,prediction_trial,138,image-keyboard-response,,
133,Experiment 2,,,,,,,,,1,,,,,,,,,,,,,0.0-114.0,,, ,456,,stimuli/11000111.jpg,,,287010,,feedback_trial,139,image-keyboard-response,,
133,Experiment 2,True,1,,False,True,001,2,,2,False,True,,True,True,000,,,,,,,0.0-115.0,,,2,1102,[2],stimuli/2001000.jpg,,,288115,,prediction_trial,140,image-keyboard-response,,
133,Experiment 2,,,,,,,,,2,,,,,,,,,,,,,0.0-116.0,,, ,467,,stimuli/20010002.jpg,,,288584,,feedback_trial,141,image-keyboard-response,,
133,Experiment 2,True,1,,True,True,000,2,,2,True,True,,True,True,000,,,,,,,0.0-117.0,,,2,627,[2],stimuli/2000000.jpg,,,289213,,prediction_trial,142,image-keyboard-response,,
133,Experiment 2,,,,,,,,,2,,,,,,,,,,,,,0.0-118.0,,, ,522,,stimuli/20000002.jpg,,,289738,,feedback_trial,143,image-keyboard-response,,
133,Experiment 2,True,1,,False,False,110,0,,0,False,False,,True,True,001,,,,,,,0.0-119.0,,,0,1153,"[0, 1]",stimuli/0110001.jpg,,,290920,,prediction_trial,144,image-keyboard-response,,
133,Experiment 2,,,,,,,,,0,,,,,,,,,,,,,0.0-120.0,,, ,489,,stimuli/01100010.jpg,,,291411,,feedback_trial,145,image-keyboard-response,,
133,Experiment 2,True,1,,False,False,101,0,,0,False,False,,True,True,001,,,,,,,0.0-121.0,,,0,1387,"[0, 2]",stimuli/0101001.jpg,,,292800,,prediction_trial,146,image-keyboard-response,,
133,Experiment 2,,,,,,,,,0,,,,,,,,,,,,,0.0-122.0,,, ,519,,stimuli/01010010.jpg,,,293320,,feedback_trial,147,image-keyboard-response,,
133,Experiment 2,True,1,,True,True,000,1,,1,False,True,,False,True,010,,,,,,,0.0-123.0,,,1,1321,[1],stimuli/1000010.jpg,,,294643,,prediction_trial,148,image-keyboard-response,,
133,Experiment 2,,,,,,,,,1,,,,,,,,,,,,,0.0-124.0,,, ,732,,stimuli/10000101.jpg,,,295377,,feedback_trial,149,image-keyboard-response,,
133,Experiment 2,True,1,,True,True,010,0,,0,False,True,,False,True,100,,,,,,,0.0-125.0,,,0,2439,[0],stimuli/0010100.jpg,,,297839,,prediction_trial,150,image-keyboard-response,,
133,Experiment 2,,,,,,,,,0,,,,,,,,,,,,,0.0-126.0,,, ,638,,stimuli/00101000.jpg,,,298480,,feedback_trial,151,image-keyboard-response,,
133,Experiment 2,True,1,,False,True,001,2,,2,False,True,,False,True,001,,,,,,,0.0-127.0,,,2,1137,[2],stimuli/2001001.jpg,,,299618,,prediction_trial,152,image-keyboard-response,,
133,Experiment 2,,,,,,,,,2,,,,,,,,,,,,,0.0-128.0,,, ,597,,stimuli/20010012.jpg,,,300218,,feedback_trial,153,image-keyboard-response,,
133,Experiment 2,False,0,,False,False,101,0,,2,False,False,,True,True,000,,,,,,,0.0-129.0,,,0,1389,"[0, 2]",stimuli/0101000.jpg,,,301609,,prediction_trial,154,image-keyboard-response,,
133,Experiment 2,,,,,,,,,0,,,,,,,,,,,,,0.0-130.0,,, ,493,,stimuli/01010002.jpg,,,302105,,feedback_trial,155,image-keyboard-response,,
133,Experiment 2,False,0,,True,True,000,1,,1,False,False,,False,False,110,,,,,,,0.0-131.0,,,0,1806,[1],stimuli/1000110.jpg,,,303913,,prediction_trial,156,image-keyboard-response,,
133,Experiment 2,,,,,,,,,1,,,,,,,,,,,,,0.0-132.0,,, ,483,,stimuli/10001101.jpg,,,304399,,feedback_trial,157,image-keyboard-response,,
133,Experiment 2,True,1,,False,False,011,2,,2,False,False,,True,True,100,,,,,,,0.0-133.0,,,2,1313,"[2, 1]",stimuli/2011100.jpg,,,305714,,prediction_trial,158,image-keyboard-response,,
133,Experiment 2,,,,,,,,,2,,,,,,,,,,,,,0.0-134.0,,, ,582,,stimuli/20111002.jpg,,,306299,,feedback_trial,159,image-keyboard-response,,
133,Experiment 2,False,0,,True,True,100,2,,2,False,False,,False,False,111,,,,,,,0.0-135.0,,,1,2812,[2],stimuli/2100111.jpg,,,309114,,prediction_trial,160,image-keyboard-response,,
133,Experiment 2,,,,,,,,,2,,,,,,,,,,,,,0.0-136.0,,, ,590,,stimuli/21001112.jpg,,,309705,,feedback_trial,161,image-keyboard-response,,
133,Experiment 2,False,0,,False,False,111,0,,2,False,False,,True,True,001,,,,,,,0.0-137.0,,,0,1404,"[1, 0, 2]",stimuli/0111001.jpg,,,311112,,prediction_trial,162,image-keyboard-response,,
133,Experiment 2,,,,,,,,,1,,,,,,,,,,,,,0.0-138.0,,, ,592,,stimuli/01110012.jpg,,,311705,,feedback_trial,163,image-keyboard-response,,
133,Experiment 2,True,1,,True,True,010,0,,0,False,False,,False,False,101,,,,,,,0.0-139.0,,,0,2303,[0],stimuli/0010101.jpg,,,314033,,prediction_trial,164,image-keyboard-response,,
133,Experiment 2,,,,,,,,,0,,,,,,,,,,,,,0.0-140.0,,, ,621,,stimuli/00101010.jpg,,,314656,,feedback_trial,165,image-keyboard-response,,
133,Experiment 2,False,0,,False,False,011,1,,2,False,False,,True,True,100,,,,,,,0.0-141.0,,,1,1231,"[1, 2]",stimuli/1011100.jpg,,,315889,,prediction_trial,166,image-keyboard-response,,
133,Experiment 2,,,,,,,,,1,,,,,,,,,,,,,0.0-142.0,,, ,541,,stimuli/10111002.jpg,,,316433,,feedback_trial,167,image-keyboard-response,,
133,Experiment 2,True,1,,False,True,100,0,,0,False,True,,True,True,010,,,,,,,0.0-143.0,,,0,1757,[0],stimuli/0100010.jpg,,,318193,,prediction_trial,168,image-keyboard-response,,
133,Experiment 2,,,,,,,,,0,,,,,,,,,,,,,0.0-144.0,,, ,558,,stimuli/01000100.jpg,,,318753,,feedback_trial,169,image-keyboard-response,,
133,Experiment 2,True,1,,True,True,001,1,,1,False,True,,False,True,010,,,,,,,0.0-145.0,,,1,2869,[1],stimuli/1001010.jpg,,,321655,,prediction_trial,170,image-keyboard-response,,
133,Experiment 2,,,,,,,,,1,,,,,,,,,,,,,0.0-146.0,,, ,647,,stimuli/10010101.jpg,,,322305,,feedback_trial,171,image-keyboard-response,,
133,Experiment 2,True,1,,False,False,011,1,,1,False,False,,False,False,110,,,,,,,0.0-147.0,,,1,2582,"[1, 2]",stimuli/1011110.jpg,,,324889,,prediction_trial,172,image-keyboard-response,,
133,Experiment 2,,,,,,,,,1,,,,,,,,,,,,,0.0-148.0,,, ,549,,stimuli/10111101.jpg,,,325440,,feedback_trial,173,image-keyboard-response,,
133,Experiment 2,True,1,,False,False,111,2,,2,False,False,,False,True,001,,,,,,,0.0-149.0,,,2,3183,"[1, 2, 0]",stimuli/2111001.jpg,,,328626,,prediction_trial,174,image-keyboard-response,,
133,Experiment 2,,,,,,,,,1,,,,,,,,,,,,,0.0-150.0,,, ,1092,,stimuli/21110012.jpg,,,329721,,feedback_trial,175,image-keyboard-response,,
133,Experiment 2,False,0,,True,True,000,2,,2,False,False,,False,False,111,,,,,,,0.0-151.0,,,1,1239,[2],stimuli/2000111.jpg,,,330977,,prediction_trial,176,image-keyboard-response,,
133,Experiment 2,,,,,,,,,2,,,,,,,,,,,,,0.0-152.0,,, ,502,,stimuli/20001112.jpg,,,331481,,feedback_trial,177,image-keyboard-response,,
133,Experiment 2,True,1,,False,True,010,1,,1,False,False,,False,False,111,,,,,,,0.0-153.0,,,1,1319,[1],stimuli/1010111.jpg,,,332803,,prediction_trial,178,image-keyboard-response,,
133,Experiment 2,,,,,,,,,1,,,,,,,,,,,,,0.0-154.0,,, ,660,,stimuli/10101111.jpg,,,333464,,feedback_trial,179,image-keyboard-response,,
133,Experiment 2,True,1,,True,True,011,0,,0,True,True,,True,True,000,,,,,,,0.0-155.0,,,0,880,[0],stimuli/0011000.jpg,,,334345,,prediction_trial,180,image-keyboard-response,,
133,Experiment 2,,,,,,,,,0,,,,,,,,,,,,,0.0-156.0,,, ,630,,stimuli/00110000.jpg,,,334977,,feedback_trial,181,image-keyboard-response,,
133,Experiment 2,False,0,,True,True,101,1,,1,False,False,,False,False,111,,,,,,,0.0-157.0,,,0,1137,[1],stimuli/1101111.jpg,,,336145,,prediction_trial,182,image-keyboard-response,,
133,Experiment 2,,,,,,,,,1,,,,,,,,,,,,,0.0-158.0,,, ,549,,stimuli/11011111.jpg,,,336696,,feedback_trial,183,image-keyboard-response,,
133,Experiment 2,True,1,,False,True,001,2,,2,False,True,,True,True,110,,,,,,,0.0-159.0,,,2,1477,[2],stimuli/2001110.jpg,,,338175,,prediction_trial,184,image-keyboard-response,,
133,Experiment 2,,,,,,,,,2,,,,,,,,,,,,,0.0-160.0,,, ,480,,stimuli/20011102.jpg,,,338656,,feedback_trial,185,image-keyboard-response,,
133,Experiment 2,True,1,,True,True,000,2,,2,True,True,,True,True,010,,,,,,,0.0-161.0,,,2,1096,[2],stimuli/2000010.jpg,,,339753,,prediction_trial,186,image-keyboard-response,,
133,Experiment 2,,,,,,,,,2,,,,,,,,,,,,,0.0-162.0,,, ,510,,stimuli/20000102.jpg,,,340266,,feedback_trial,187,image-keyboard-response,,
133,Experiment 2,True,1,,False,True,001,2,,2,False,True,,True,True,010,,,,,,,0.0-163.0,,,2,1484,[2],stimuli/2001010.jpg,,,341777,,prediction_trial,188,image-keyboard-response,,
133,Experiment 2,,,,,,,,,2,,,,,,,,,,,,,0.0-164.0,,, ,484,,stimuli/20010102.jpg,,,342265,,feedback_trial,189,image-keyboard-response,,
133,Experiment 2,True,1,,True,True,000,1,,1,True,True,,True,True,000,,,,,,,0.0-165.0,,,1,766,[1],stimuli/1000000.jpg,,,343033,,prediction_trial,190,image-keyboard-response,,
133,Experiment 2,,,,,,,,,1,,,,,,,,,,,,,0.0-166.0,,, ,559,,stimuli/10000001.jpg,,,343593,,feedback_trial,191,image-keyboard-response,,
133,Experiment 2,True,1,,True,True,011,0,,0,False,True,,False,True,100,,,,,,,0.0-167.0,,,0,1454,[0],stimuli/0011100.jpg,,,345049,,prediction_trial,192,image-keyboard-response,,
133,Experiment 2,,,,,,,,,0,,,,,,,,,,,,,0.0-168.0,,, ,1189,,stimuli/00111000.jpg,,,346241,,feedback_trial,193,image-keyboard-response,,
133,Experiment 2,True,1,,True,True,000,2,,2,True,True,,True,True,100,,,,,,,0.0-169.0,,,2,823,[2],stimuli/2000100.jpg,,,347098,,prediction_trial,194,image-keyboard-response,,
133,Experiment 2,,,,,,,,,2,,,,,,,,,,,,,0.0-170.0,,, ,885,,stimuli/20001002.jpg,,,347985,,feedback_trial,195,image-keyboard-response,,
133,Experiment 2,True,1,,True,True,110,2,,2,True,True,,True,True,110,,,,,,,0.0-171.0,,,2,797,[2],stimuli/2110110.jpg,,,348785,,prediction_trial,196,image-keyboard-response,,
133,Experiment 2,,,,,,,,,2,,,,,,,,,,,,,0.0-172.0,,, ,596,,stimuli/21101102.jpg,,,349384,,feedback_trial,197,image-keyboard-response,,
133,Experiment 2,True,1,,True,True,010,0,,0,True,True,,True,True,011,,,,,,,0.0-173.0,,,0,680,[0],stimuli/0010011.jpg,,,350065,,prediction_trial,198,image-keyboard-response,,
133,Experiment 2,,,,,,,,,0,,,,,,,,,,,,,0.0-174.0,,, ,693,,stimuli/00100110.jpg,,,350761,,feedback_trial,199,image-keyboard-response,,
133,Experiment 2,False,0,,False,False,101,2,,2,False,False,,False,False,011,,,,,,,0.0-175.0,,,1,2210,"[2, 0]",stimuli/2101011.jpg,,,353001,,prediction_trial,200,image-keyboard-response,,
133,Experiment 2,,,,,,,,,2,,,,,,,,,,,,,0.0-176.0,,, ,589,,stimuli/21010112.jpg,,,353593,,feedback_trial,201,image-keyboard-response,,
133,Experiment 2,True,1,,False,False,101,0,,2,False,False,,True,True,011,,,,,,,0.0-177.0,,,2,3295,"[0, 2]",stimuli/0101011.jpg,,,356889,,prediction_trial,202,image-keyboard-response,,
133,Experiment 2,,,,,,,,,0,,,,,,,,,,,,,0.0-178.0,,, ,925,,stimuli/01010112.jpg,,,357817,,feedback_trial,203,image-keyboard-response,,
133,Experiment 2,False,0,,False,False,111,2,,2,False,False,,True,True,000,,,,,,,0.0-179.0,,,1,1965,"[1, 2, 0]",stimuli/2111000.jpg,,,359785,,prediction_trial,204,image-keyboard-response,,
133,Experiment 2,,,,,,,,,1,,,,,,,,,,,,,0.0-180.0,,, ,581,,stimuli/21110002.jpg,,,360369,,feedback_trial,205,image-keyboard-response,,
133,Experiment 2,True,1,,True,True,100,2,,2,False,True,,False,True,001,,,,,,,0.0-181.0,,,2,2478,[2],stimuli/2100001.jpg,,,362849,,prediction_trial,206,image-keyboard-response,,
133,Experiment 2,,,,,,,,,2,,,,,,,,,,,,,0.0-182.0,,, ,508,,stimuli/21000012.jpg,,,363359,,feedback_trial,207,image-keyboard-response,,
133,Experiment 2,True,1,,True,True,001,0,,0,True,True,,True,True,011,,,,,,,0.0-183.0,,,0,841,[0],stimuli/0001011.jpg,,,364202,,prediction_trial,208,image-keyboard-response,,
133,Experiment 2,,,,,,,,,0,,,,,,,,,,,,,0.0-184.0,,, ,524,,stimuli/00010110.jpg,,,364727,,feedback_trial,209,image-keyboard-response,,
133,Experiment 2,True,1,,True,True,100,1,,1,True,True,,True,True,000,,,,,,,0.0-185.0,,,1,662,[1],stimuli/1100000.jpg,,,365400,,prediction_trial,210,image-keyboard-response,,
133,Experiment 2,,,,,,,,,1,,,,,,,,,,,,,0.0-186.0,,, ,607,,stimuli/11000001.jpg,,,366010,,feedback_trial,211,image-keyboard-response,,
133,Experiment 2,True,1,,True,True,000,1,,1,True,True,,True,True,100,,,,,,,0.0-187.0,,,1,588,[1],stimuli/1000100.jpg,,,366600,,prediction_trial,212,image-keyboard-response,,
133,Experiment 2,,,,,,,,,1,,,,,,,,,,,,,0.0-188.0,,, ,519,,stimuli/10001001.jpg,,,367121,,feedback_trial,213,image-keyboard-response,,
133,Experiment 2,True,1,,True,True,110,2,,2,False,False,,False,False,111,,,,,,,0.0-189.0,,,2,917,[2],stimuli/2110111.jpg,,,368041,,prediction_trial,214,image-keyboard-response,,
133,Experiment 2,,,,,,,,,2,,,,,,,,,,,,,0.0-190.0,,, ,558,,stimuli/21101112.jpg,,,368601,,feedback_trial,215,image-keyboard-response,,
133,Experiment 2,True,1,,True,True,000,0,,0,True,True,,True,True,010,,,,,,,0.0-191.0,,,0,699,[0],stimuli/0000010.jpg,,,369322,,prediction_trial,216,image-keyboard-response,,
133,Experiment 2,,,,,,,,,0,,,,,,,,,,,,,0.0-192.0,,, ,660,,stimuli/00000100.jpg,,,369986,,feedback_trial,217,image-keyboard-response,,
133,Experiment 2,False,0,,False,False,110,0,,0,False,False,,False,False,101,,,,,,,0.0-193.0,,,2,2477,"[0, 1]",stimuli/0110101.jpg,,,372465,,prediction_trial,218,image-keyboard-response,,
133,Experiment 2,,,,,,,,,0,,,,,,,,,,,,,0.0-194.0,,, ,525,,stimuli/01101010.jpg,,,372993,,feedback_trial,219,image-keyboard-response,,
133,Experiment 2,False,0,,False,False,111,1,,2,False,False,,True,True,100,,,,,,,0.0-195.0,,,1,1141,"[1, 2, 0]",stimuli/1111100.jpg,,,374137,,prediction_trial,220,image-keyboard-response,,
133,Experiment 2,,,,,,,,,1,,,,,,,,,,,,,0.0-196.0,,, ,522,,stimuli/11111002.jpg,,,374662,,feedback_trial,221,image-keyboard-response,,
133,Experiment 2,True,1,,True,True,101,1,,1,False,False,,False,False,011,,,,,,,0.0-197.0,,,1,4009,[1],stimuli/1101011.jpg,,,378673,,prediction_trial,222,image-keyboard-response,,
133,Experiment 2,,,,,,,,,1,,,,,,,,,,,,,0.0-198.0,,, ,589,,stimuli/11010111.jpg,,,379265,,feedback_trial,223,image-keyboard-response,,
133,Experiment 2,False,0,,False,False,101,2,,0,False,False,,True,True,000,,,,,,,0.0-199.0,,,2,1662,"[0, 2]",stimuli/2101000.jpg,,,380929,,prediction_trial,224,image-keyboard-response,,
133,Experiment 2,,,,,,,,,0,,,,,,,,,,,,,0.0-200.0,,, ,516,,stimuli/21010000.jpg,,,381448,,feedback_trial,225,image-keyboard-response,,
133,Experiment 2,True,1,,True,True,010,2,,2,True,True,,True,True,010,,,,,,,0.0-201.0,,,2,675,[2],stimuli/2010010.jpg,,,382137,,prediction_trial,226,image-keyboard-response,,
133,Experiment 2,,,,,,,,,2,,,,,,,,,,,,,0.0-202.0,,, ,487,,stimuli/20100102.jpg,,,382627,,feedback_trial,227,image-keyboard-response,,
133,Experiment 2,True,1,,True,True,100,2,,2,True,True,,True,True,000,,,,,,,0.0-203.0,,,2,596,[2],stimuli/2100000.jpg,,,383226,,prediction_trial,228,image-keyboard-response,,
133,Experiment 2,,,,,,,,,2,,,,,,,,,,,,,0.0-204.0,,, ,404,,stimuli/21000002.jpg,,,383633,,feedback_trial,229,image-keyboard-response,,
133,Experiment 2,False,0,,False,False,111,1,,0,False,False,,True,True,000,,,,,,,0.0-205.0,,,1,1014,"[0, 1, 2]",stimuli/1111000.jpg,,,384649,,prediction_trial,230,image-keyboard-response,,
133,Experiment 2,,,,,,,,,0,,,,,,,,,,,,,0.0-206.0,,, ,474,,stimuli/11110000.jpg,,,385126,,feedback_trial,231,image-keyboard-response,,
133,Experiment 2,True,1,,True,True,110,2,,2,True,True,,True,True,100,,,,,,,0.0-207.0,,,2,778,[2],stimuli/2110100.jpg,,,385907,,prediction_trial,232,image-keyboard-response,,
133,Experiment 2,,,,,,,,,2,,,,,,,,,,,,,0.0-208.0,,, ,484,,stimuli/21101002.jpg,,,386417,,feedback_trial,233,image-keyboard-response,,
133,Experiment 2,False,0,,False,False,011,1,,2,False,False,,True,True,001,,,,,,,0.0-209.0,,,1,2606,"[1, 2]",stimuli/1011001.jpg,,,389025,,prediction_trial,234,image-keyboard-response,,
133,Experiment 2,,,,,,,,,1,,,,,,,,,,,,,0.0-210.0,,, ,766,,stimuli/10110012.jpg,,,389793,,feedback_trial,235,image-keyboard-response,,
133,Experiment 2,True,1,,True,True,001,1,,1,True,True,,True,True,000,,,,,,,0.0-211.0,,,1,807,[1],stimuli/1001000.jpg,,,390602,,prediction_trial,236,image-keyboard-response,,
133,Experiment 2,,,,,,,,,1,,,,,,,,,,,,,0.0-212.0,,, ,468,,stimuli/10010001.jpg,,,391072,,feedback_trial,237,image-keyboard-response,,
133,Experiment 2,False,0,,False,True,100,0,,0,False,False,,False,False,110,,,,,,,0.0-213.0,,,1,1312,[0],stimuli/0100110.jpg,,,392385,,prediction_trial,238,image-keyboard-response,,
133,Experiment 2,,,,,,,,,0,,,,,,,,,,,,,0.0-214.0,,, ,469,,stimuli/01001100.jpg,,,392857,,feedback_trial,239,image-keyboard-response,,
133,Experiment 2,False,0,,False,True,001,2,,2,False,False,,False,False,011,,,,,,,0.0-215.0,,,1,1423,[2],stimuli/2001011.jpg,,,394282,,prediction_trial,240,image-keyboard-response,,
133,Experiment 2,,,,,,,,,2,,,,,,,,,,,,,0.0-216.0,,, ,405,,stimuli/20010112.jpg,,,394689,,feedback_trial,241,image-keyboard-response,,
133,Experiment 2,False,0,,True,True,000,0,,0,False,False,,False,False,110,,,,,,,0.0-217.0,,,1,3557,[0],stimuli/0000110.jpg,,,398249,,prediction_trial,242,image-keyboard-response,,
133,Experiment 2,,,,,,,,,0,,,,,,,,,,,,,0.0-218.0,,, ,455,,stimuli/00001100.jpg,,,398705,,feedback_trial,243,image-keyboard-response,,
133,Experiment 2,True,1,,True,True,001,1,,1,True,True,,True,True,100,,,,,,,0.0-219.0,,,1,655,[1],stimuli/1001100.jpg,,,399383,,prediction_trial,244,image-keyboard-response,,
133,Experiment 2,,,,,,,,,1,,,,,,,,,,,,,0.0-220.0,,, ,495,,stimuli/10011001.jpg,,,399879,,feedback_trial,245,image-keyboard-response,,
133,Experiment 2,True,1,,False,False,110,0,,0,False,False,,True,True,011,,,,,,,0.0-221.0,,,0,1330,"[1, 0]",stimuli/0110011.jpg,,,401210,,prediction_trial,246,image-keyboard-response,,
133,Experiment 2,,,,,,,,,1,,,,,,,,,,,,,0.0-222.0,,, ,525,,stimuli/01100110.jpg,,,401737,,feedback_trial,247,image-keyboard-response,,
133,Experiment 2,True,1,,True,True,000,0,,0,False,False,,False,False,111,,,,,,,0.0-223.0,,,0,1468,[0],stimuli/0000111.jpg,,,403209,,prediction_trial,248,image-keyboard-response,,
133,Experiment 2,,,,,,,,,0,,,,,,,,,,,,,0.0-224.0,,, ,554,,stimuli/00001110.jpg,,,403783,,feedback_trial,249,image-keyboard-response,,
133,Experiment 2,True,1,,True,True,101,1,,1,True,True,,True,True,000,,,,,,,0.0-225.0,,,1,791,[1],stimuli/1101000.jpg,,,404577,,prediction_trial,250,image-keyboard-response,,
133,Experiment 2,,,,,,,,,1,,,,,,,,,,,,,0.0-226.0,,, ,397,,stimuli/11010001.jpg,,,404977,,feedback_trial,251,image-keyboard-response,,
133,Experiment 2,False,0,,False,False,111,0,,2,False,False,,False,False,111,,,,,,,0.0-227.0,,,0,727,"[1, 0, 2]",stimuli/0111111.jpg,,,405706,,prediction_trial,252,image-keyboard-response,,
133,Experiment 2,,,,,,,,,1,,,,,,,,,,,,,0.0-228.0,,, ,469,,stimuli/01111112.jpg,,,406177,,feedback_trial,253,image-keyboard-response,,
133,Experiment 2,True,1,,True,True,100,1,,1,True,True,,True,True,100,,,,,,,0.0-229.0,,,1,661,[1],stimuli/1100100.jpg,,,406841,,prediction_trial,254,image-keyboard-response,,
133,Experiment 2,,,,,,,,,1,,,,,,,,,,,,,0.0-230.0,,, ,383,,stimuli/11001001.jpg,,,407257,,feedback_trial,255,image-keyboard-response,,
133,Experiment 2,True,1,,True,True,000,1,,1,True,True,,True,True,001,,,,,,,0.0-231.0,,,1,534,[1],stimuli/1000001.jpg,,,407793,,prediction_trial,256,image-keyboard-response,,
133,Experiment 2,,,,,,,,,1,,,,,,,,,,,,,0.0-232.0,,, ,390,,stimuli/10000011.jpg,,,408186,,feedback_trial,257,image-keyboard-response,,
133,Experiment 2,True,1,,False,True,100,0,,0,False,False,,False,False,101,,,,,,,0.0-233.0,,,0,2330,[0],stimuli/0100101.jpg,,,410519,,prediction_trial,258,image-keyboard-response,,
133,Experiment 2,,,,,,,,,0,,,,,,,,,,,,,0.0-234.0,,, ,632,,stimuli/01001010.jpg,,,411153,,feedback_trial,259,image-keyboard-response,,
133,Experiment 2,False,0,,False,False,111,1,,0,False,False,,True,True,001,,,,,,,0.0-235.0,,,1,1122,"[1, 2, 0]",stimuli/1111001.jpg,,,412306,,prediction_trial,260,image-keyboard-response,,
133,Experiment 2,,,,,,,,,1,,,,,,,,,,,,,0.0-236.0,,, ,509,,stimuli/11110010.jpg,,,412817,,feedback_trial,261,image-keyboard-response,,
133,Experiment 2,True,1,,True,True,100,2,,2,True,True,,True,True,110,,,,,,,0.0-237.0,,,2,757,[2],stimuli/2100110.jpg,,,413577,,prediction_trial,262,image-keyboard-response,,
133,Experiment 2,,,,,,,,,2,,,,,,,,,,,,,0.0-238.0,,, ,550,,stimuli/21001102.jpg,,,414131,,feedback_trial,263,image-keyboard-response,,
133,Experiment 2,True,1,,True,True,001,1,,1,True,True,,True,True,001,,,,,,,0.0-239.0,,,1,1268,[1],stimuli/1001001.jpg,,,415401,,prediction_trial,264,image-keyboard-response,,
133,Experiment 2,,,,,,,,,1,,,,,,,,,,,,,0.0-240.0,,, ,493,,stimuli/10010011.jpg,,,415897,,feedback_trial,265,image-keyboard-response,,
133,Experiment 2,True,1,,True,True,000,0,,0,False,True,,False,True,100,,,,,,,0.0-241.0,,,0,1876,[0],stimuli/0000100.jpg,,,417776,,prediction_trial,266,image-keyboard-response,,
133,Experiment 2,,,,,,,,,0,,,,,,,,,,,,,0.0-242.0,,, ,536,,stimuli/00001000.jpg,,,418313,,feedback_trial,267,image-keyboard-response,,
133,Experiment 2,True,1,,False,False,101,2,,0,False,False,,False,False,101,,,,,,,0.0-243.0,,,0,1093,"[2, 0]",stimuli/2101101.jpg,,,419409,,prediction_trial,268,image-keyboard-response,,
133,Experiment 2,,,,,,,,,2,,,,,,,,,,,,,0.0-244.0,,, ,597,,stimuli/21011010.jpg,,,420005,,feedback_trial,269,image-keyboard-response,,
133,Experiment 2,True,1,,True,True,010,2,,2,False,True,,False,True,001,,,,,,,0.0-245.0,,,2,2121,[2],stimuli/2010001.jpg,,,422127,,prediction_trial,270,image-keyboard-response,,
133,Experiment 2,,,,,,,,,2,,,,,,,,,,,,,0.0-246.0,,, ,1253,,stimuli/20100012.jpg,,,423397,,feedback_trial,271,image-keyboard-response,,
133,Experiment 2,True,1,,False,False,110,1,,1,False,False,,True,True,101,,,,,,,0.0-247.0,,,1,979,"[1, 0]",stimuli/1110101.jpg,,,424379,,prediction_trial,272,image-keyboard-response,,
133,Experiment 2,,,,,,,,,1,,,,,,,,,,,,,0.0-248.0,,, ,697,,stimuli/11101011.jpg,,,425077,,feedback_trial,273,image-keyboard-response,,
133,Experiment 2,True,1,,True,True,001,0,,0,True,True,,True,True,010,,,,,,,0.0-249.0,,,0,1405,[0],stimuli/0001010.jpg,,,426484,,prediction_trial,274,image-keyboard-response,,
133,Experiment 2,,,,,,,,,0,,,,,,,,,,,,,0.0-250.0,,, ,502,,stimuli/00010100.jpg,,,426989,,feedback_trial,275,image-keyboard-response,,
133,Experiment 2,True,1,,True,True,100,1,,1,True,True,,True,True,101,,,,,,,0.0-251.0,,,1,709,[1],stimuli/1100101.jpg,,,427701,,prediction_trial,276,image-keyboard-response,,
133,Experiment 2,,,,,,,,,1,,,,,,,,,,,,,0.0-252.0,,, ,493,,stimuli/11001011.jpg,,,428196,,feedback_trial,277,image-keyboard-response,,
133,Experiment 2,False,0,,False,False,111,1,,0,False,False,,False,False,011,,,,,,,0.0-253.0,,,1,1576,"[2, 0, 1]",stimuli/1111011.jpg,,,429804,,prediction_trial,278,image-keyboard-response,,
133,Experiment 2,,,,,,,,,2,,,,,,,,,,,,,0.0-254.0,,, ,1400,,stimuli/11110110.jpg,,,431205,,feedback_trial,279,image-keyboard-response,,
133,Experiment 2,True,1,,False,True,010,1,,1,False,True,,True,True,100,,,,,,,0.0-255.0,,,1,2019,[1],stimuli/1010100.jpg,,,433226,,prediction_trial,280,image-keyboard-response,,
133,Experiment 2,,,,,,,,,1,,,,,,,,,,,,,0.0-256.0,,, ,496,,stimuli/10101001.jpg,,,433724,,feedback_trial,281,image-keyboard-response,,
133,Experiment 2,False,0,,False,False,011,2,,1,False,False,,True,True,000,,,,,,,0.0-257.0,,,2,1095,"[1, 2]",stimuli/2011000.jpg,,,434822,,prediction_trial,282,image-keyboard-response,,
133,Experiment 2,,,,,,,,,1,,,,,,,,,,,,,0.0-258.0,,, ,524,,stimuli/20110001.jpg,,,435348,,feedback_trial,283,image-keyboard-response,,
133,Experiment 2,False,0,,False,False,110,1,,0,False,False,,False,False,110,,,,,,,0.0-259.0,,,1,910,"[1, 0]",stimuli/1110110.jpg,,,436277,,prediction_trial,284,image-keyboard-response,,
133,Experiment 2,,,,,,,,,1,,,,,,,,,,,,,0.0-260.0,,, ,685,,stimuli/11101100.jpg,,,436965,,feedback_trial,285,image-keyboard-response,,
133,Experiment 2,True,1,,False,False,110,0,,0,False,False,,True,True,010,,,,,,,0.0-261.0,,,0,2989,"[0, 1]",stimuli/0110010.jpg,,,439957,,prediction_trial,286,image-keyboard-response,,
133,Experiment 2,,,,,,,,,0,,,,,,,,,,,,,0.0-262.0,,, ,565,,stimuli/01100100.jpg,,,440525,,feedback_trial,287,image-keyboard-response,,
133,Experiment 2,True,1,,False,True,001,2,,2,False,True,,True,True,100,,,,,,,0.0-263.0,,,2,1612,[2],stimuli/2001100.jpg,,,442139,,prediction_trial,288,image-keyboard-response,,
133,Experiment 2,,,,,,,,,2,,,,,,,,,,,,,0.0-264.0,,, ,440,,stimuli/20011002.jpg,,,442580,,feedback_trial,289,image-keyboard-response,,
133,Experiment 2,True,1,,False,False,101,2,,2,False,False,,True,True,110,,,,,,,0.0-265.0,,,2,1315,"[0, 2]",stimuli/2101110.jpg,,,443926,,prediction_trial,290,image-keyboard-response,,
133,Experiment 2,,,,,,,,,0,,,,,,,,,,,,,0.0-266.0,,, ,460,,stimuli/21011102.jpg,,,444387,,feedback_trial,291,image-keyboard-response,,
133,Experiment 2,False,0,,False,False,111,2,,0,False,False,,False,False,011,,,,,,,0.0-267.0,,,1,1321,"[1, 0, 2]",stimuli/2111011.jpg,,,445709,,prediction_trial,292,image-keyboard-response,,
133,Experiment 2,,,,,,,,,1,,,,,,,,,,,,,0.0-268.0,,, ,572,,stimuli/21110110.jpg,,,446283,,feedback_trial,293,image-keyboard-response,,
133,Experiment 2,True,1,,False,False,110,1,,1,False,False,,True,True,001,,,,,,,0.0-269.0,,,1,967,"[0, 1]",stimuli/1110001.jpg,,,447251,,prediction_trial,294,image-keyboard-response,,
133,Experiment 2,,,,,,,,,0,,,,,,,,,,,,,0.0-270.0,,, ,727,,stimuli/11100011.jpg,,,447980,,feedback_trial,295,image-keyboard-response,,
133,Experiment 2,True,1,,True,True,001,0,,0,True,True,,True,True,000,,,,,,,0.0-271.0,,,0,1032,[0],stimuli/0001000.jpg,,,449013,,prediction_trial,296,image-keyboard-response,,
133,Experiment 2,,,,,,,,,0,,,,,,,,,,,,,0.0-272.0,,, ,642,,stimuli/00010000.jpg,,,449685,,feedback_trial,297,image-keyboard-response,,
133,Experiment 2,True,1,,False,False,110,0,,0,False,False,,False,True,100,,,,,,,0.0-273.0,,,0,1262,"[0, 1]",stimuli/0110100.jpg,,,450949,,prediction_trial,298,image-keyboard-response,,
133,Experiment 2,,,,,,,,,0,,,,,,,,,,,,,0.0-274.0,,, ,656,,stimuli/01101000.jpg,,,451607,,feedback_trial,299,image-keyboard-response,,
133,Experiment 2,True,1,,True,True,010,2,,2,True,True,,True,True,110,,,,,,,0.0-275.0,,,2,820,[2],stimuli/2010110.jpg,,,452429,,prediction_trial,300,image-keyboard-response,,
133,Experiment 2,,,,,,,,,2,,,,,,,,,,,,,0.0-276.0,,, ,606,,stimuli/20101102.jpg,,,453037,,feedback_trial,301,image-keyboard-response,,
133,Experiment 2,True,1,,False,False,101,2,,2,False,False,,True,True,010,,,,,,,0.0-277.0,,,2,1577,"[2, 0]",stimuli/2101010.jpg,,,454617,,prediction_trial,302,image-keyboard-response,,
133,Experiment 2,,,,,,,,,2,,,,,,,,,,,,,0.0-278.0,,, ,544,,stimuli/21010102.jpg,,,455165,,feedback_trial,303,image-keyboard-response,,
133,Experiment 2,True,1,,True,True,100,2,,2,True,True,,True,True,010,,,,,,,0.0-279.0,,,2,789,[2],stimuli/2100010.jpg,,,455957,,prediction_trial,304,image-keyboard-response,,
133,Experiment 2,,,,,,,,,2,,,,,,,,,,,,,0.0-280.0,,, ,612,,stimuli/21000102.jpg,,,456571,,feedback_trial,305,image-keyboard-response,,
133,Experiment 2,False,0,,False,False,111,2,,2,False,False,,True,True,100,,,,,,,0.0-281.0,,,1,1104,"[2, 1, 0]",stimuli/2111100.jpg,,,457677,,prediction_trial,306,image-keyboard-response,,
133,Experiment 2,,,,,,,,,2,,,,,,,,,,,,,0.0-282.0,,, ,581,,stimuli/21111002.jpg,,,458261,,feedback_trial,307,image-keyboard-response,,
133,Experiment 2,True,1,,False,False,011,2,,1,False,False,,False,False,011,,,,,,,0.0-283.0,,,1,1124,"[2, 1]",stimuli/2011011.jpg,,,459387,,prediction_trial,308,image-keyboard-response,,
133,Experiment 2,,,,,,,,,2,,,,,,,,,,,,,0.0-284.0,,, ,679,,stimuli/20110111.jpg,,,460068,,feedback_trial,309,image-keyboard-response,,
133,Experiment 2,False,0,,False,False,101,2,,0,False,False,,False,True,001,,,,,,,0.0-285.0,,,2,1926,"[2, 0]",stimuli/2101001.jpg,,,461995,,prediction_trial,310,image-keyboard-response,,
133,Experiment 2,,,,,,,,,2,,,,,,,,,,,,,0.0-286.0,,, ,520,,stimuli/21010010.jpg,,,462517,,feedback_trial,311,image-keyboard-response,,
133,Experiment 2,False,0,,False,False,011,1,,2,False,False,,True,True,101,,,,,,,0.0-287.0,,,1,1269,"[1, 2]",stimuli/1011101.jpg,,,463788,,prediction_trial,312,image-keyboard-response,,
133,Experiment 2,,,,,,,,,1,,,,,,,,,,,,,0.0-288.0,,, ,466,,stimuli/10111012.jpg,,,464276,,feedback_trial,313,image-keyboard-response,,
133,Experiment 2,False,0,,False,False,111,0,,2,False,False,,False,True,100,,,,,,,0.0-289.0,,,0,872,"[0, 1, 2]",stimuli/0111100.jpg,,,465148,,prediction_trial,314,image-keyboard-response,,
133,Experiment 2,,,,,,,,,0,,,,,,,,,,,,,0.0-290.0,,, ,1607,,stimuli/01111002.jpg,,,466757,,feedback_trial,315,image-keyboard-response,,
133,Experiment 2,True,1,,True,True,010,0,,0,True,True,,True,True,000,,,,,,,0.0-291.0,,,0,749,[0],stimuli/0010000.jpg,,,467510,,prediction_trial,316,image-keyboard-response,,
133,Experiment 2,,,,,,,,,0,,,,,,,,,,,,,0.0-292.0,,, ,539,,stimuli/00100000.jpg,,,468052,,feedback_trial,317,image-keyboard-response,,
133,Experiment 2,,,39,,,,,0.6458333333333334,,,,,,,,Non-Hispanic,,,,I just look to see what he knew and what I knew and then picked.  ,Male,0.0-293.0,0.6458333333333334,White,"{'age': '39', 'race': 'White', 'gender': 'Male', 'feedback': 'I just look to see what he knew and what I knew and then picked.  ', 'ethnicity': 'Non-Hispanic', 'other_race': '', 'other_gender': ''}",31275,,,,,499330,,exit_survey,318,survey-html-form,,
133,Experiment 2,,,,,,,,,,,,,,,,,,,,,,0.0-294.0,,,0,2495,,"<div style=""text-align:left; padding:10px; max-width:900px;""><center><p><b>Study Debriefing</b></p></center><p>Judgement and decision making are important aspects of public and private life. Using surveys like the one you just completed, we are examining the factors that go into making social decisions.</p><p><b>How is this being tested? </b> We have asked you to respond to stories or videos that differ on several important factors. By isolating different variables that are involved in social thought, we can better understand how we arrive at complex decision-making. For example, some actions are seen as more worthy of blame if they are performed intentionally. Harming someone on purpose is generally worse than harming someone by accident, or even harming someone in a way that is foreseen but not intended.</p><p><b>Main questions and hypotheses: </b>A fundamental goal of our research is to understand the cognitive and emotional factors that influence social judgment and decision-making. We are studying these factors by presenting people with hypothetical questions that vary in specific ways and seeing which factors make a difference. Some people filled out the same survey that you just filled out. Others got slightly different surveys.</p><p><b>Why is this important to study? </b>By comparing answers on these important factors, we learn about what factors affect social judgment. This has crucial implications for many public domains, including the legal system.</p><p><b>How to learn more: </b>If you are interested in learning more, you may want to consult the following articles:<p><p style=""margin-left:10%; margin-right:10%;"">Phillips, J., & Cushman, F. (2017). Morality constrains the default representation of what is possible. Proceedings of the National Academy of Sciences of the United States of America, 114(18), 46494654. https://doi.org/10.1073/pnas.1619717114<p style=""margin-left:10%; margin-right:10%;"">Phillips, J., Morris, A., & Cushman, F. (2019). How we know what not to think. Trends in Cognitive Sciences, 23(12), 10261040. https://doi.org/10.1016/j.tics.2019.09.007<p style=""margin-left:10%; margin-right:10%;"">Phillips, J., Buckwalter, W., Cushman, F., Friedman, O., Martin, A., Turri, J., Santos, L., & Knobe, J. (2020). Knowledge before Belief. Behavioral and Brain Sciences, 1-37. doi:10.1017/S0140525X20000618</p><p><b>How to contact the researcher:</b> If you have questions or concerns about your participation or payment, or want to request a summary of research findings, please contact the Primary Investigator: Dr. Jonathan Phillips, at Jonathan.S.Phillips@dartmouth.edu.Whom to contact about your rights in this research: If you have questions, concerns, complaints, or suggestions about the present research, you may call the Office of the Committee for the Protection of Human Subjects at Dartmouth College (603) 646-6482 during normal business hours.</p><p><b>Thank you for your participation!<b/></p>",,,501829,,,319,html-button-response,,
130,Experiment 2,,,,,,,,,,,,,,,,,[],[],[],,,0.0-0.0,,,,,,,,True,40362,False,,0,preload,,
130,Experiment 2,,,,,,,,,,,,,,,,,,,,,,0.0-1.0,,,,,,,,True,49975,,,1,fullscreen,,
130,Experiment 2,,,,,,,,,,,,,,,,,,,,,,0.0-2.0,,,0,4139,,"<p><b>Consent Form</b></p> <div style=""text-align:left;background-color:lightgrey; padding:20px; max-width:900px;""><p>Please consider this information carefully before deciding whether to participate in this research.</p> <p>The purpose of this research is to examine which factors influence social judgment and decision-making. You will be asked to make judgements about individuals and actions in social scenarios. We are simply interested in your judgement. The study will take less than 1 hour to complete, and you will receive less than $20 on Prolific. Your compensation and time commitment are specified in the study description. There are no anticipated risks associated with participating in this study. The effects of participating should be comparable to those you would ordinarily experience from viewing a computer monitor and using a mouse or keyboard for a similar amount of time. At the end of the study, we will provide an explanation of the questions that motivate this line of research and will describe the potential implications. </p><p> Your participation in this study is completely voluntary and you may refuse to participate or you may choose to withdraw at any time without penalty or loss of benefits to you which are otherwise entitled. Your participation in this study will remain confidential. No personally identifiable information will be associated with your data. Also, all analyses of the data will be averaged across all the participants, so your individual responses will never be specifically analyzed. </p><p> If you have questions or concerns about your participation or payment, or want to request a summary of research findings, please contact Dr. Jonathan Phillips at Jonathan.S.Phillips@dartmouth.edu. </p><p> Please save a copy of this form for your records. </p><p><b>Agreement: </b>The nature and purpose of this research have been sufficiently explained and I agree to participate in this study. I understand that I am free to withdraw at any time without incurring any penalty. Please consent by clicking the button below to continue. Otherwise, please exit the study at any time. </p>",,,54126,,,2,html-button-response,,
130,Experiment 2,,,,,,,,,,,,,,,,,,,,,,0.0-3.0-0.0,,,,113620,,,,,167751,,intro,3,instructions,"[{'page_index': 0, 'viewing_time': 5134}, {'page_index': 1, 'viewing_time': 5878}, {'page_index': 2, 'viewing_time': 4215}, {'page_index': 3, 'viewing_time': 7456}, {'page_index': 4, 'viewing_time': 6249}, {'page_index': 5, 'viewing_time': 1207}, {'page_index': 6, 'viewing_time': 2832}, {'page_index': 7, 'viewing_time': 7256}, {'page_index': 8, 'viewing_time': 2857}, {'page_index': 9, 'viewing_time': 1920}, {'page_index': 10, 'viewing_time': 8536}, {'page_index': 11, 'viewing_time': 32360}, {'page_index': 12, 'viewing_time': 23984}, {'page_index': 13, 'viewing_time': 3728}]",
130,Experiment 2,False,,,,,,,,1,,,,,,,,,,,,,0.0-3.0-1.0,,,0,17652,,stimuli/0111110.jpg,"{'ball_pos': 0, 'filepath': 'stimuli/0111110.jpg', 'ego_can_infer': False, 'ego_occluders': '110', 'alter_can_infer': False, 'alter_occluders': '111', 'ego_ball_visible': False, 'search_locations': [1, 0, 2], 'alter_ball_visible': False, 'collective_can_infer': False, 'collective_ball_visible': False}",,185559,,prediction_practice,4,image-keyboard-response,,
130,Experiment 2,,,,,,,,,1,,,,,,,,,,,,,0.0-3.0-2.0,,, ,114741,,stimuli/01111101.jpg,,,300311,,practrice_feedback,5,image-keyboard-response,,
130,Experiment 2,True,,,,,,,,1,,,,,,,,,,,,,0.0-3.0-3.0,,,1,2994,,stimuli/1011001.jpg,"{'ball_pos': 1, 'filepath': 'stimuli/1011001.jpg', 'ego_can_infer': True, 'ego_occluders': '001', 'alter_can_infer': False, 'alter_occluders': '011', 'ego_ball_visible': True, 'search_locations': [1, 2], 'alter_ball_visible': False, 'collective_can_infer': False, 'collective_ball_visible': False}",,303318,,prediction_practice,6,image-keyboard-response,,
130,Experiment 2,,,,,,,,,1,,,,,,,,,,,,,0.0-3.0-4.0,,, ,3043,,stimuli/10110011.jpg,,,306371,,practrice_feedback,7,image-keyboard-response,,
130,Experiment 2,True,,,,,,,,0,,,,,,,,,,,,,0.0-3.0-5.0,,,0,2722,,stimuli/0100100.jpg,"{'ball_pos': 0, 'filepath': 'stimuli/0100100.jpg', 'ego_can_infer': True, 'ego_occluders': '100', 'alter_can_infer': True, 'alter_occluders': '100', 'ego_ball_visible': False, 'search_locations': [0], 'alter_ball_visible': False, 'collective_can_infer': True, 'collective_ball_visible': False}",,309100,,prediction_practice,8,image-keyboard-response,,
130,Experiment 2,,,,,,,,,0,,,,,,,,,,,,,0.0-3.0-6.0,,, ,448,,stimuli/01001000.jpg,,,309557,,practrice_feedback,9,image-keyboard-response,,
130,Experiment 2,False,,,,,,,,2,,,,,,,,,,,,,0.0-3.0-7.0,,,0,3306,,stimuli/0101101.jpg,"{'ball_pos': 0, 'filepath': 'stimuli/0101101.jpg', 'ego_can_infer': False, 'ego_occluders': '101', 'alter_can_infer': False, 'alter_occluders': '101', 'ego_ball_visible': False, 'search_locations': [0, 2], 'alter_ball_visible': False, 'collective_can_infer': False, 'collective_ball_visible': False}",,312873,,prediction_practice,10,image-keyboard-response,,
130,Experiment 2,,,,,,,,,0,,,,,,,,,,,,,0.0-3.0-8.0,,, ,807,,stimuli/01011012.jpg,,,313692,,practrice_feedback,11,image-keyboard-response,,
130,Experiment 2,False,,,,,,,,2,,,,,,,,,,,,,0.0-3.0-9.0,,,1,2709,,stimuli/1111010.jpg,"{'ball_pos': 1, 'filepath': 'stimuli/1111010.jpg', 'ego_can_infer': True, 'ego_occluders': '010', 'alter_can_infer': False, 'alter_occluders': '111', 'ego_ball_visible': False, 'search_locations': [1, 0, 2], 'alter_ball_visible': False, 'collective_can_infer': False, 'collective_ball_visible': False}",,316414,,prediction_practice,12,image-keyboard-response,,
130,Experiment 2,,,,,,,,,1,,,,,,,,,,,,,0.0-3.0-10.0,,, ,473,,stimuli/11110102.jpg,,,316898,,practrice_feedback,13,image-keyboard-response,,
130,Experiment 2,True,,,,,,,,0,,,,,,,,,,,,,0.0-3.0-11.0,,,0,3398,,stimuli/0001110.jpg,"{'ball_pos': 0, 'filepath': 'stimuli/0001110.jpg', 'ego_can_infer': False, 'ego_occluders': '110', 'alter_can_infer': True, 'alter_occluders': '001', 'ego_ball_visible': False, 'search_locations': [0], 'alter_ball_visible': True, 'collective_can_infer': False, 'collective_ball_visible': False}",,320309,,prediction_practice,14,image-keyboard-response,,
130,Experiment 2,,,,,,,,,0,,,,,,,,,,,,,0.0-3.0-12.0,,, ,459,,stimuli/00011100.jpg,,,320779,,practrice_feedback,15,image-keyboard-response,,
130,Experiment 2,True,,,,,,,,1,,,,,,,,,,,,,0.0-3.0-13.0,,,1,3207,,stimuli/1101000.jpg,"{'ball_pos': 1, 'filepath': 'stimuli/1101000.jpg', 'ego_can_infer': True, 'ego_occluders': '000', 'alter_can_infer': True, 'alter_occluders': '101', 'ego_ball_visible': True, 'search_locations': [1], 'alter_ball_visible': True, 'collective_can_infer': True, 'collective_ball_visible': True}",,323997,,prediction_practice,16,image-keyboard-response,,
130,Experiment 2,,,,,,,,,1,,,,,,,,,,,,,0.0-3.0-14.0,,, ,1080,,stimuli/11010001.jpg,,,325085,,practrice_feedback,17,image-keyboard-response,,
130,Experiment 2,True,,,,,,,,0,,,,,,,,,,,,,0.0-3.0-15.0,,,0,2638,,stimuli/0100001.jpg,"{'ball_pos': 0, 'filepath': 'stimuli/0100001.jpg', 'ego_can_infer': True, 'ego_occluders': '001', 'alter_can_infer': True, 'alter_occluders': '100', 'ego_ball_visible': True, 'search_locations': [0], 'alter_ball_visible': False, 'collective_can_infer': True, 'collective_ball_visible': False}",,327731,,prediction_practice,18,image-keyboard-response,,
130,Experiment 2,,,,,,,,,0,,,,,,,,,,,,,0.0-3.0-16.0,,, ,927,,stimuli/01000010.jpg,,,328668,,practrice_feedback,19,image-keyboard-response,,
130,Experiment 2,True,,,,,,,,1,,,,,,,,,,,,,0.0-3.0-17.0,,,1,1589,,stimuli/1000101.jpg,"{'ball_pos': 1, 'filepath': 'stimuli/1000101.jpg', 'ego_can_infer': True, 'ego_occluders': '101', 'alter_can_infer': True, 'alter_occluders': '000', 'ego_ball_visible': True, 'search_locations': [1], 'alter_ball_visible': True, 'collective_can_infer': True, 'collective_ball_visible': True}",,330267,,prediction_practice,20,image-keyboard-response,,
130,Experiment 2,,,,,,,,,1,,,,,,,,,,,,,0.0-3.0-18.0,,, ,495,,stimuli/10001011.jpg,,,330771,,practrice_feedback,21,image-keyboard-response,,
130,Experiment 2,True,,,,,,,,1,,,,,,,,,,,,,0.0-3.0-19.0,,,1,2253,,stimuli/1011011.jpg,"{'ball_pos': 1, 'filepath': 'stimuli/1011011.jpg', 'ego_can_infer': False, 'ego_occluders': '011', 'alter_can_infer': False, 'alter_occluders': '011', 'ego_ball_visible': False, 'search_locations': [2, 1], 'alter_ball_visible': False, 'collective_can_infer': False, 'collective_ball_visible': False}",,333036,,prediction_practice,22,image-keyboard-response,,
130,Experiment 2,,,,,,,,,2,,,,,,,,,,,,,0.0-3.0-20.0,,, ,478,,stimuli/10110111.jpg,,,333525,,practrice_feedback,23,image-keyboard-response,,
130,Experiment 2,,,,,,,,,,,,,,,,,,,,,,0.0-3.0-21.0,,,0,2789,,"Now that you've had some practice, you'll be tested with a couple of easy trials. If you correctly predict Sam's choice, you'll move on to complete the experiment!",,,336319,,,24,html-button-response,,
130,Experiment 2,True,,,,,,,,,,,arrowleft,,,,,,,,,,0.0-3.0-22.0-0.0,,,arrowleft,3024,,stimuli/0000011.jpg,,,339356,,comprehension_quiz,25,image-keyboard-response,,
130,Experiment 2,True,,,,,,,,,,, ,,,,,,,,,,0.0-3.0-22.0-1.0,,, ,1260,,stimuli/00000110.jpg,,,340627,,comprehension_quiz,26,image-keyboard-response,,
130,Experiment 2,True,,,,,,,,,,,arrowdown,,,,,,,,,,0.0-3.0-22.0-2.0,,,arrowdown,3814,,stimuli/1010010.jpg,,,344451,,comprehension_quiz,27,image-keyboard-response,,
130,Experiment 2,True,,,,,,,,,,, ,,,,,,,,,,0.0-3.0-22.0-3.0,,, ,854,,stimuli/10100101.jpg,,,345315,,comprehension_quiz,28,image-keyboard-response,,
130,Experiment 2,,,,,,,,,,,,,,,,,,,,,,0.0-4.0,,,0,779864,,The experiment will now begin.,,,1125192,,,29,html-button-response,,
130,Experiment 2,True,1,,True,True,010,2,,2,False,False,,False,False,101,,,,,,,0.0-5.0,,,2,13855,[2],stimuli/2010101.jpg,,,1139055,,prediction_trial,30,image-keyboard-response,,
130,Experiment 2,,,,,,,,,2,,,,,,,,,,,,,0.0-6.0,,, ,2983,,stimuli/20101012.jpg,,,1142051,,feedback_trial,31,image-keyboard-response,,
130,Experiment 2,True,1,,False,True,100,0,,0,False,True,,True,True,011,,,,,,,0.0-7.0,,,0,1582,[0],stimuli/0100011.jpg,,,1143642,,prediction_trial,32,image-keyboard-response,,
130,Experiment 2,,,,,,,,,0,,,,,,,,,,,,,0.0-8.0,,, ,2314,,stimuli/01000110.jpg,,,1145965,,feedback_trial,33,image-keyboard-response,,
130,Experiment 2,True,1,,False,True,100,0,,0,False,True,,True,True,010,,,,,,,0.0-9.0,,,0,2194,[0],stimuli/0100010.jpg,,,1148171,,prediction_trial,34,image-keyboard-response,,
130,Experiment 2,,,,,,,,,0,,,,,,,,,,,,,0.0-10.0,,, ,295,,stimuli/01000100.jpg,,,1148476,,feedback_trial,35,image-keyboard-response,,
130,Experiment 2,True,1,,True,True,000,0,,0,True,True,,True,True,000,,,,,,,0.0-11.0,,,0,1281,[0],stimuli/0000000.jpg,,,1149768,,prediction_trial,36,image-keyboard-response,,
130,Experiment 2,,,,,,,,,0,,,,,,,,,,,,,0.0-12.0,,, ,176,,stimuli/00000000.jpg,,,1149956,,feedback_trial,37,image-keyboard-response,,
130,Experiment 2,False,0,,True,True,000,0,,0,False,False,,False,False,101,,,,,,,0.0-13.0,,,2,2285,[0],stimuli/0000101.jpg,,,1152251,,prediction_trial,38,image-keyboard-response,,
130,Experiment 2,,,,,,,,,0,,,,,,,,,,,,,0.0-14.0,,, ,230,,stimuli/00001010.jpg,,,1152492,,feedback_trial,39,image-keyboard-response,,
130,Experiment 2,True,1,,True,True,011,0,,0,False,False,,False,False,110,,,,,,,0.0-15.0,,,0,1622,[0],stimuli/0011110.jpg,,,1154123,,prediction_trial,40,image-keyboard-response,,
130,Experiment 2,,,,,,,,,0,,,,,,,,,,,,,0.0-16.0,,, ,191,,stimuli/00111100.jpg,,,1154324,,feedback_trial,41,image-keyboard-response,,
130,Experiment 2,False,0,,False,True,001,2,,2,False,False,,False,False,101,,,,,,,0.0-17.0,,,0,2604,[2],stimuli/2001101.jpg,,,1156939,,prediction_trial,42,image-keyboard-response,,
130,Experiment 2,,,,,,,,,2,,,,,,,,,,,,,0.0-18.0,,, ,231,,stimuli/20011012.jpg,,,1157179,,feedback_trial,43,image-keyboard-response,,
130,Experiment 2,True,1,,True,True,011,0,,0,False,False,,False,False,101,,,,,,,0.0-19.0,,,0,2592,[0],stimuli/0011101.jpg,,,1159784,,prediction_trial,44,image-keyboard-response,,
130,Experiment 2,,,,,,,,,0,,,,,,,,,,,,,0.0-20.0,,, ,1329,,stimuli/00111010.jpg,,,1161123,,feedback_trial,45,image-keyboard-response,,
130,Experiment 2,False,0,,True,True,001,1,,1,True,True,,True,True,101,,,,,,,0.0-21.0,,,2,4222,[1],stimuli/1001101.jpg,,,1165355,,prediction_trial,46,image-keyboard-response,,
130,Experiment 2,,,,,,,,,1,,,,,,,,,,,,,0.0-22.0,,, ,6596,,stimuli/10011011.jpg,,,1171960,,feedback_trial,47,image-keyboard-response,,
130,Experiment 2,False,0,,False,False,101,0,,2,False,False,,False,False,111,,,,,,,0.0-23.0,,,0,2490,"[0, 2]",stimuli/0101111.jpg,,,1174459,,prediction_trial,48,image-keyboard-response,,
130,Experiment 2,,,,,,,,,0,,,,,,,,,,,,,0.0-24.0,,, ,223,,stimuli/01011112.jpg,,,1174691,,feedback_trial,49,image-keyboard-response,,
130,Experiment 2,True,1,,False,True,001,2,,2,False,True,,False,True,001,,,,,,,0.0-25.0,,,2,2383,[2],stimuli/2001001.jpg,,,1177083,,prediction_trial,50,image-keyboard-response,,
130,Experiment 2,,,,,,,,,2,,,,,,,,,,,,,0.0-26.0,,, ,934,,stimuli/20010012.jpg,,,1178027,,feedback_trial,51,image-keyboard-response,,
130,Experiment 2,False,0,,True,True,010,0,,0,False,False,,False,False,110,,,,,,,0.0-27.0,,,1,1700,[0],stimuli/0010110.jpg,,,1179738,,prediction_trial,52,image-keyboard-response,,
130,Experiment 2,,,,,,,,,0,,,,,,,,,,,,,0.0-28.0,,, ,169,,stimuli/00101100.jpg,,,1179917,,feedback_trial,53,image-keyboard-response,,
130,Experiment 2,False,0,,False,False,101,0,,2,False,False,,True,True,011,,,,,,,0.0-29.0,,,0,1539,"[2, 0]",stimuli/0101011.jpg,,,1181467,,prediction_trial,54,image-keyboard-response,,
130,Experiment 2,,,,,,,,,2,,,,,,,,,,,,,0.0-30.0,,, ,151,,stimuli/01010112.jpg,,,1181628,,feedback_trial,55,image-keyboard-response,,
130,Experiment 2,False,0,,False,False,110,1,,0,False,False,,True,True,000,,,,,,,0.0-31.0,,,1,1259,"[1, 0]",stimuli/1110000.jpg,,,1182896,,prediction_trial,56,image-keyboard-response,,
130,Experiment 2,,,,,,,,,1,,,,,,,,,,,,,0.0-32.0,,, ,203,,stimuli/11100000.jpg,,,1183108,,feedback_trial,57,image-keyboard-response,,
130,Experiment 2,False,0,,True,True,001,1,,1,False,False,,False,False,011,,,,,,,0.0-33.0,,,2,1805,[1],stimuli/1001011.jpg,,,1184925,,prediction_trial,58,image-keyboard-response,,
130,Experiment 2,,,,,,,,,1,,,,,,,,,,,,,0.0-34.0,,, ,182,,stimuli/10010111.jpg,,,1185116,,feedback_trial,59,image-keyboard-response,,
130,Experiment 2,True,1,,True,True,000,0,,0,True,True,,True,True,010,,,,,,,0.0-35.0,,,0,1415,[0],stimuli/0000010.jpg,,,1186539,,prediction_trial,60,image-keyboard-response,,
130,Experiment 2,,,,,,,,,0,,,,,,,,,,,,,0.0-36.0,,, ,351,,stimuli/00000100.jpg,,,1186899,,feedback_trial,61,image-keyboard-response,,
130,Experiment 2,False,0,,True,True,110,2,,2,False,False,,False,False,011,,,,,,,0.0-37.0,,,1,1853,[2],stimuli/2110011.jpg,,,1188763,,prediction_trial,62,image-keyboard-response,,
130,Experiment 2,,,,,,,,,2,,,,,,,,,,,,,0.0-38.0,,, ,197,,stimuli/21100112.jpg,,,1188971,,feedback_trial,63,image-keyboard-response,,
130,Experiment 2,True,1,,True,True,100,1,,1,False,True,,False,True,010,,,,,,,0.0-39.0,,,1,2477,[1],stimuli/1100010.jpg,,,1191459,,prediction_trial,64,image-keyboard-response,,
130,Experiment 2,,,,,,,,,1,,,,,,,,,,,,,0.0-40.0,,, ,367,,stimuli/11000101.jpg,,,1191835,,feedback_trial,65,image-keyboard-response,,
130,Experiment 2,True,1,,True,True,000,0,,0,True,True,,True,True,011,,,,,,,0.0-41.0,,,0,1377,[0],stimuli/0000011.jpg,,,1193223,,prediction_trial,66,image-keyboard-response,,
130,Experiment 2,,,,,,,,,0,,,,,,,,,,,,,0.0-42.0,,, ,267,,stimuli/00000110.jpg,,,1193499,,feedback_trial,67,image-keyboard-response,,
130,Experiment 2,False,0,,False,False,111,0,,2,False,False,,False,True,100,,,,,,,0.0-43.0,,,0,1645,"[1, 0, 2]",stimuli/0111100.jpg,,,1195154,,prediction_trial,68,image-keyboard-response,,
130,Experiment 2,,,,,,,,,1,,,,,,,,,,,,,0.0-44.0,,, ,359,,stimuli/01111002.jpg,,,1195523,,feedback_trial,69,image-keyboard-response,,
130,Experiment 2,True,1,,False,False,110,1,,1,False,False,,False,False,110,,,,,,,0.0-45.0,,,1,2142,"[1, 0]",stimuli/1110110.jpg,,,1197675,,prediction_trial,70,image-keyboard-response,,
130,Experiment 2,,,,,,,,,1,,,,,,,,,,,,,0.0-46.0,,, ,320,,stimuli/11101101.jpg,,,1198004,,feedback_trial,71,image-keyboard-response,,
130,Experiment 2,True,1,,True,True,110,2,,2,True,True,,True,True,100,,,,,,,0.0-47.0,,,2,1366,[2],stimuli/2110100.jpg,,,1199379,,prediction_trial,72,image-keyboard-response,,
130,Experiment 2,,,,,,,,,2,,,,,,,,,,,,,0.0-48.0,,, ,313,,stimuli/21101002.jpg,,,1199700,,feedback_trial,73,image-keyboard-response,,
130,Experiment 2,False,0,,True,True,000,1,,1,True,True,,True,True,101,,,,,,,0.0-49.0,,,2,2023,[1],stimuli/1000101.jpg,,,1201731,,prediction_trial,74,image-keyboard-response,,
130,Experiment 2,,,,,,,,,1,,,,,,,,,,,,,0.0-50.0,,, ,1628,,stimuli/10001011.jpg,,,1203368,,feedback_trial,75,image-keyboard-response,,
130,Experiment 2,True,1,,False,False,111,1,,1,False,False,,False,True,010,,,,,,,0.0-51.0,,,1,3786,"[1, 0, 2]",stimuli/1111010.jpg,,,1207163,,prediction_trial,76,image-keyboard-response,,
130,Experiment 2,,,,,,,,,1,,,,,,,,,,,,,0.0-52.0,,, ,399,,stimuli/11110101.jpg,,,1207571,,feedback_trial,77,image-keyboard-response,,
130,Experiment 2,True,1,,False,False,011,2,,2,False,False,,True,True,100,,,,,,,0.0-53.0,,,2,1237,"[1, 2]",stimuli/2011100.jpg,,,1208819,,prediction_trial,78,image-keyboard-response,,
130,Experiment 2,,,,,,,,,1,,,,,,,,,,,,,0.0-54.0,,, ,255,,stimuli/20111002.jpg,,,1209083,,feedback_trial,79,image-keyboard-response,,
130,Experiment 2,True,1,,True,True,101,1,,1,False,True,,False,True,010,,,,,,,0.0-55.0,,,1,1695,[1],stimuli/1101010.jpg,,,1210787,,prediction_trial,80,image-keyboard-response,,
130,Experiment 2,,,,,,,,,1,,,,,,,,,,,,,0.0-56.0,,, ,238,,stimuli/11010101.jpg,,,1211035,,feedback_trial,81,image-keyboard-response,,
130,Experiment 2,True,1,,True,True,010,2,,2,True,True,,True,True,110,,,,,,,0.0-57.0,,,2,1181,[2],stimuli/2010110.jpg,,,1212226,,prediction_trial,82,image-keyboard-response,,
130,Experiment 2,,,,,,,,,2,,,,,,,,,,,,,0.0-58.0,,, ,386,,stimuli/20101102.jpg,,,1212619,,feedback_trial,83,image-keyboard-response,,
130,Experiment 2,True,1,,False,True,100,0,,0,False,True,,False,True,100,,,,,,,0.0-59.0,,,0,1492,[0],stimuli/0100100.jpg,,,1214126,,prediction_trial,84,image-keyboard-response,,
130,Experiment 2,,,,,,,,,0,,,,,,,,,,,,,0.0-60.0,,, ,251,,stimuli/01001000.jpg,,,1214387,,feedback_trial,85,image-keyboard-response,,
130,Experiment 2,True,1,,False,True,001,2,,2,False,True,,True,True,010,,,,,,,0.0-61.0,,,2,1133,[2],stimuli/2001010.jpg,,,1215530,,prediction_trial,86,image-keyboard-response,,
130,Experiment 2,,,,,,,,,2,,,,,,,,,,,,,0.0-62.0,,, ,1001,,stimuli/20010102.jpg,,,1216540,,feedback_trial,87,image-keyboard-response,,
130,Experiment 2,True,1,,True,True,011,0,,0,True,True,,True,True,010,,,,,,,0.0-63.0,,,0,1134,[0],stimuli/0011010.jpg,,,1217683,,prediction_trial,88,image-keyboard-response,,
130,Experiment 2,,,,,,,,,0,,,,,,,,,,,,,0.0-64.0,,, ,256,,stimuli/00110100.jpg,,,1217948,,feedback_trial,89,image-keyboard-response,,
130,Experiment 2,True,1,,False,False,111,1,,1,False,False,,True,True,000,,,,,,,0.0-65.0,,,1,1135,"[1, 0, 2]",stimuli/1111000.jpg,,,1219091,,prediction_trial,90,image-keyboard-response,,
130,Experiment 2,,,,,,,,,1,,,,,,,,,,,,,0.0-66.0,,, ,215,,stimuli/11110001.jpg,,,1219316,,feedback_trial,91,image-keyboard-response,,
130,Experiment 2,True,1,,False,True,010,1,,1,False,True,,True,True,101,,,,,,,0.0-67.0,,,1,1016,[1],stimuli/1010101.jpg,,,1220339,,prediction_trial,92,image-keyboard-response,,
130,Experiment 2,,,,,,,,,1,,,,,,,,,,,,,0.0-68.0,,, ,238,,stimuli/10101011.jpg,,,1220587,,feedback_trial,93,image-keyboard-response,,
130,Experiment 2,True,1,,True,True,010,0,,0,True,True,,True,True,011,,,,,,,0.0-69.0,,,0,1175,[0],stimuli/0010011.jpg,,,1221771,,prediction_trial,94,image-keyboard-response,,
130,Experiment 2,,,,,,,,,0,,,,,,,,,,,,,0.0-70.0,,, ,263,,stimuli/00100110.jpg,,,1222045,,feedback_trial,95,image-keyboard-response,,
130,Experiment 2,True,1,,True,True,110,2,,2,True,True,,True,True,010,,,,,,,0.0-71.0,,,2,1050,[2],stimuli/2110010.jpg,,,1223108,,prediction_trial,96,image-keyboard-response,,
130,Experiment 2,,,,,,,,,2,,,,,,,,,,,,,0.0-72.0,,, ,1370,,stimuli/21100102.jpg,,,1224488,,feedback_trial,97,image-keyboard-response,,
130,Experiment 2,False,0,,False,False,111,1,,0,False,False,,True,True,001,,,,,,,0.0-73.0,,,1,1106,"[1, 0, 2]",stimuli/1111001.jpg,,,1225603,,prediction_trial,98,image-keyboard-response,,
130,Experiment 2,,,,,,,,,1,,,,,,,,,,,,,0.0-74.0,,, ,231,,stimuli/11110010.jpg,,,1225844,,feedback_trial,99,image-keyboard-response,,
130,Experiment 2,True,1,,True,True,001,1,,1,False,False,,False,False,111,,,,,,,0.0-75.0,,,1,1999,[1],stimuli/1001111.jpg,,,1227852,,prediction_trial,100,image-keyboard-response,,
130,Experiment 2,,,,,,,,,1,,,,,,,,,,,,,0.0-76.0,,, ,301,,stimuli/10011111.jpg,,,1228164,,feedback_trial,101,image-keyboard-response,,
130,Experiment 2,False,0,,False,False,011,1,,2,False,False,,False,False,111,,,,,,,0.0-77.0,,,0,1604,"[1, 2]",stimuli/1011111.jpg,,,1229779,,prediction_trial,102,image-keyboard-response,,
130,Experiment 2,,,,,,,,,1,,,,,,,,,,,,,0.0-78.0,,, ,278,,stimuli/10111112.jpg,,,1230067,,feedback_trial,103,image-keyboard-response,,
130,Experiment 2,True,1,,True,True,101,1,,1,False,False,,False,False,111,,,,,,,0.0-79.0,,,1,1547,[1],stimuli/1101111.jpg,,,1231626,,prediction_trial,104,image-keyboard-response,,
130,Experiment 2,,,,,,,,,1,,,,,,,,,,,,,0.0-80.0,,, ,225,,stimuli/11011111.jpg,,,1231858,,feedback_trial,105,image-keyboard-response,,
130,Experiment 2,True,1,,True,True,010,0,,0,True,True,,True,True,010,,,,,,,0.0-81.0,,,0,1185,[0],stimuli/0010010.jpg,,,1233050,,prediction_trial,106,image-keyboard-response,,
130,Experiment 2,,,,,,,,,0,,,,,,,,,,,,,0.0-82.0,,, ,216,,stimuli/00100100.jpg,,,1233276,,feedback_trial,107,image-keyboard-response,,
130,Experiment 2,False,0,,True,True,000,0,,0,False,False,,False,False,110,,,,,,,0.0-83.0,,,1,2555,[0],stimuli/0000110.jpg,,,1235841,,prediction_trial,108,image-keyboard-response,,
130,Experiment 2,,,,,,,,,0,,,,,,,,,,,,,0.0-84.0,,, ,242,,stimuli/00001100.jpg,,,1236092,,feedback_trial,109,image-keyboard-response,,
130,Experiment 2,False,0,,False,True,001,2,,2,False,False,,False,False,011,,,,,,,0.0-85.0,,,1,3344,[2],stimuli/2001011.jpg,,,1239443,,prediction_trial,110,image-keyboard-response,,
130,Experiment 2,,,,,,,,,2,,,,,,,,,,,,,0.0-86.0,,, ,2280,,stimuli/20010112.jpg,,,1241732,,feedback_trial,111,image-keyboard-response,,
130,Experiment 2,False,0,,True,True,100,1,,1,False,False,,False,False,110,,,,,,,0.0-87.0,,,0,1724,[1],stimuli/1100110.jpg,,,1243467,,prediction_trial,112,image-keyboard-response,,
130,Experiment 2,,,,,,,,,1,,,,,,,,,,,,,0.0-88.0,,, ,718,,stimuli/11001101.jpg,,,1244196,,feedback_trial,113,image-keyboard-response,,
130,Experiment 2,False,0,,True,True,100,2,,2,False,False,,False,False,011,,,,,,,0.0-89.0,,,1,2515,[2],stimuli/2100011.jpg,,,1246719,,prediction_trial,114,image-keyboard-response,,
130,Experiment 2,,,,,,,,,2,,,,,,,,,,,,,0.0-90.0,,, ,218,,stimuli/21000112.jpg,,,1246947,,feedback_trial,115,image-keyboard-response,,
130,Experiment 2,True,1,,False,False,111,2,,2,False,False,,False,True,001,,,,,,,0.0-91.0,,,2,2703,"[0, 2, 1]",stimuli/2111001.jpg,,,1249659,,prediction_trial,116,image-keyboard-response,,
130,Experiment 2,,,,,,,,,0,,,,,,,,,,,,,0.0-92.0,,, ,2304,,stimuli/21110012.jpg,,,1251972,,feedback_trial,117,image-keyboard-response,,
130,Experiment 2,False,0,,False,False,101,2,,0,False,False,,False,True,001,,,,,,,0.0-93.0,,,2,1688,"[2, 0]",stimuli/2101001.jpg,,,1253669,,prediction_trial,118,image-keyboard-response,,
130,Experiment 2,,,,,,,,,2,,,,,,,,,,,,,0.0-94.0,,, ,2534,,stimuli/21010010.jpg,,,1256212,,feedback_trial,119,image-keyboard-response,,
130,Experiment 2,True,1,,False,True,001,2,,2,False,True,,True,True,100,,,,,,,0.0-95.0,,,2,1698,[2],stimuli/2001100.jpg,,,1257920,,prediction_trial,120,image-keyboard-response,,
130,Experiment 2,,,,,,,,,2,,,,,,,,,,,,,0.0-96.0,,, ,793,,stimuli/20011002.jpg,,,1258723,,feedback_trial,121,image-keyboard-response,,
130,Experiment 2,True,1,,True,True,110,2,,2,False,True,,False,True,001,,,,,,,0.0-97.0,,,2,1151,[2],stimuli/2110001.jpg,,,1259884,,prediction_trial,122,image-keyboard-response,,
130,Experiment 2,,,,,,,,,2,,,,,,,,,,,,,0.0-98.0,,, ,342,,stimuli/21100012.jpg,,,1260235,,feedback_trial,123,image-keyboard-response,,
130,Experiment 2,False,0,,False,True,100,0,,0,False,False,,False,False,111,,,,,,,0.0-99.0,,,1,2591,[0],stimuli/0100111.jpg,,,1262835,,prediction_trial,124,image-keyboard-response,,
130,Experiment 2,,,,,,,,,0,,,,,,,,,,,,,0.0-100.0,,, ,224,,stimuli/01001110.jpg,,,1263069,,feedback_trial,125,image-keyboard-response,,
130,Experiment 2,True,1,,True,True,001,1,,1,False,False,,False,False,110,,,,,,,0.0-101.0,,,1,1925,[1],stimuli/1001110.jpg,,,1265004,,prediction_trial,126,image-keyboard-response,,
130,Experiment 2,,,,,,,,,1,,,,,,,,,,,,,0.0-102.0,,, ,303,,stimuli/10011101.jpg,,,1265315,,feedback_trial,127,image-keyboard-response,,
130,Experiment 2,False,0,,False,False,101,0,,2,False,False,,False,True,100,,,,,,,0.0-103.0,,,0,2945,"[2, 0]",stimuli/0101100.jpg,,,1268273,,prediction_trial,128,image-keyboard-response,,
130,Experiment 2,,,,,,,,,2,,,,,,,,,,,,,0.0-104.0,,, ,305,,stimuli/01011002.jpg,,,1268587,,feedback_trial,129,image-keyboard-response,,
130,Experiment 2,True,1,,False,False,110,0,,0,False,False,,False,False,111,,,,,,,0.0-105.0,,,0,9848,"[1, 0]",stimuli/0110111.jpg,,,1278446,,prediction_trial,130,image-keyboard-response,,
130,Experiment 2,,,,,,,,,1,,,,,,,,,,,,,0.0-106.0,,, ,1651,,stimuli/01101110.jpg,,,1280107,,feedback_trial,131,image-keyboard-response,,
130,Experiment 2,False,0,,True,True,010,2,,2,False,False,,False,False,111,,,,,,,0.0-107.0,,,1,3151,[2],stimuli/2010111.jpg,,,1283267,,prediction_trial,132,image-keyboard-response,,
130,Experiment 2,,,,,,,,,2,,,,,,,,,,,,,0.0-108.0,,, ,5444,,stimuli/20101112.jpg,,,1288721,,feedback_trial,133,image-keyboard-response,,
130,Experiment 2,True,1,,False,False,101,0,,0,False,False,,True,True,001,,,,,,,0.0-109.0,,,0,17400,"[0, 2]",stimuli/0101001.jpg,,,1306129,,prediction_trial,134,image-keyboard-response,,
130,Experiment 2,,,,,,,,,0,,,,,,,,,,,,,0.0-110.0,,, ,1696,,stimuli/01010010.jpg,,,1307835,,feedback_trial,135,image-keyboard-response,,
130,Experiment 2,True,1,,False,True,100,0,,0,False,True,,True,True,001,,,,,,,0.0-111.0,,,0,3007,[0],stimuli/0100001.jpg,,,1310851,,prediction_trial,136,image-keyboard-response,,
130,Experiment 2,,,,,,,,,0,,,,,,,,,,,,,0.0-112.0,,, ,350,,stimuli/01000010.jpg,,,1311212,,feedback_trial,137,image-keyboard-response,,
130,Experiment 2,True,1,,True,True,000,0,,0,False,False,,False,False,111,,,,,,,0.0-113.0,,,0,4571,[0],stimuli/0000111.jpg,,,1315796,,prediction_trial,138,image-keyboard-response,,
130,Experiment 2,,,,,,,,,0,,,,,,,,,,,,,0.0-114.0,,, ,317,,stimuli/00001110.jpg,,,1316123,,feedback_trial,139,image-keyboard-response,,
130,Experiment 2,True,1,,False,True,100,0,,0,False,False,,False,False,101,,,,,,,0.0-115.0,,,0,5185,[0],stimuli/0100101.jpg,,,1321320,,prediction_trial,140,image-keyboard-response,,
130,Experiment 2,,,,,,,,,0,,,,,,,,,,,,,0.0-116.0,,, ,419,,stimuli/01001010.jpg,,,1321747,,feedback_trial,141,image-keyboard-response,,
130,Experiment 2,True,1,,True,True,000,1,,1,False,True,,False,True,010,,,,,,,0.0-117.0,,,1,3797,[1],stimuli/1000010.jpg,,,1325555,,prediction_trial,142,image-keyboard-response,,
130,Experiment 2,,,,,,,,,1,,,,,,,,,,,,,0.0-118.0,,, ,279,,stimuli/10000101.jpg,,,1325843,,feedback_trial,143,image-keyboard-response,,
130,Experiment 2,True,1,,True,True,000,2,,2,False,False,,False,False,101,,,,,,,0.0-119.0,,,2,2887,[2],stimuli/2000101.jpg,,,1328739,,prediction_trial,144,image-keyboard-response,,
130,Experiment 2,,,,,,,,,2,,,,,,,,,,,,,0.0-120.0,,, ,501,,stimuli/20001012.jpg,,,1329251,,feedback_trial,145,image-keyboard-response,,
130,Experiment 2,True,1,,True,True,011,0,,0,True,True,,True,True,000,,,,,,,0.0-121.0,,,0,4700,[0],stimuli/0011000.jpg,,,1333960,,prediction_trial,146,image-keyboard-response,,
130,Experiment 2,,,,,,,,,0,,,,,,,,,,,,,0.0-122.0,,, ,762,,stimuli/00110000.jpg,,,1334731,,feedback_trial,147,image-keyboard-response,,
130,Experiment 2,True,1,,True,True,001,0,,0,True,True,,True,True,011,,,,,,,0.0-123.0,,,0,1092,[0],stimuli/0001011.jpg,,,1335834,,prediction_trial,148,image-keyboard-response,,
130,Experiment 2,,,,,,,,,0,,,,,,,,,,,,,0.0-124.0,,, ,215,,stimuli/00010110.jpg,,,1336059,,feedback_trial,149,image-keyboard-response,,
130,Experiment 2,True,1,,True,True,000,1,,1,True,True,,True,True,001,,,,,,,0.0-125.0,,,1,1454,[1],stimuli/1000001.jpg,,,1337522,,prediction_trial,150,image-keyboard-response,,
130,Experiment 2,,,,,,,,,1,,,,,,,,,,,,,0.0-126.0,,, ,143,,stimuli/10000011.jpg,,,1337675,,feedback_trial,151,image-keyboard-response,,
130,Experiment 2,True,1,,False,False,111,2,,2,False,False,,True,True,100,,,,,,,0.0-127.0,,,2,3743,"[2, 1, 0]",stimuli/2111100.jpg,,,1341427,,prediction_trial,152,image-keyboard-response,,
130,Experiment 2,,,,,,,,,2,,,,,,,,,,,,,0.0-128.0,,, ,326,,stimuli/21111002.jpg,,,1341764,,feedback_trial,153,image-keyboard-response,,
130,Experiment 2,True,1,,True,True,000,1,,1,False,False,,False,False,011,,,,,,,0.0-129.0,,,1,4946,[1],stimuli/1000011.jpg,,,1346720,,prediction_trial,154,image-keyboard-response,,
130,Experiment 2,,,,,,,,,1,,,,,,,,,,,,,0.0-130.0,,, ,361,,stimuli/10000111.jpg,,,1347091,,feedback_trial,155,image-keyboard-response,,
130,Experiment 2,False,0,,False,False,111,0,,0,False,False,,False,False,111,,,,,,,0.0-131.0,,,2,3405,"[0, 1, 2]",stimuli/0111111.jpg,,,1350507,,prediction_trial,156,image-keyboard-response,,
130,Experiment 2,,,,,,,,,0,,,,,,,,,,,,,0.0-132.0,,, ,248,,stimuli/01111110.jpg,,,1350763,,feedback_trial,157,image-keyboard-response,,
130,Experiment 2,False,0,,True,True,010,0,,0,False,False,,False,False,111,,,,,,,0.0-133.0,,,1,2773,[0],stimuli/0010111.jpg,,,1353546,,prediction_trial,158,image-keyboard-response,,
130,Experiment 2,,,,,,,,,0,,,,,,,,,,,,,0.0-134.0,,, ,224,,stimuli/00101110.jpg,,,1353779,,feedback_trial,159,image-keyboard-response,,
130,Experiment 2,True,1,,True,True,010,2,,2,False,True,,False,True,001,,,,,,,0.0-135.0,,,2,6428,[2],stimuli/2010001.jpg,,,1360216,,prediction_trial,160,image-keyboard-response,,
130,Experiment 2,,,,,,,,,2,,,,,,,,,,,,,0.0-136.0,,, ,537,,stimuli/20100012.jpg,,,1360763,,feedback_trial,161,image-keyboard-response,,
130,Experiment 2,True,1,,True,True,100,2,,2,True,True,,True,True,000,,,,,,,0.0-137.0,,,2,1294,[2],stimuli/2100000.jpg,,,1362067,,prediction_trial,162,image-keyboard-response,,
130,Experiment 2,,,,,,,,,2,,,,,,,,,,,,,0.0-138.0,,, ,174,,stimuli/21000002.jpg,,,1362252,,feedback_trial,163,image-keyboard-response,,
130,Experiment 2,True,1,,False,False,011,1,,1,False,False,,False,False,110,,,,,,,0.0-139.0,,,1,2415,"[2, 1]",stimuli/1011110.jpg,,,1364675,,prediction_trial,164,image-keyboard-response,,
130,Experiment 2,,,,,,,,,2,,,,,,,,,,,,,0.0-140.0,,, ,1150,,stimuli/10111101.jpg,,,1365835,,feedback_trial,165,image-keyboard-response,,
130,Experiment 2,True,1,,True,True,101,1,,1,True,True,,True,True,000,,,,,,,0.0-141.0,,,1,2701,[1],stimuli/1101000.jpg,,,1368547,,prediction_trial,166,image-keyboard-response,,
130,Experiment 2,,,,,,,,,1,,,,,,,,,,,,,0.0-142.0,,, ,214,,stimuli/11010001.jpg,,,1368772,,feedback_trial,167,image-keyboard-response,,
130,Experiment 2,False,0,,False,False,111,0,,1,False,False,,True,True,011,,,,,,,0.0-143.0,,,0,1351,"[1, 0, 2]",stimuli/0111011.jpg,,,1370130,,prediction_trial,168,image-keyboard-response,,
130,Experiment 2,,,,,,,,,1,,,,,,,,,,,,,0.0-144.0,,, ,265,,stimuli/01110111.jpg,,,1370407,,feedback_trial,169,image-keyboard-response,,
130,Experiment 2,True,1,,True,True,010,2,,2,True,True,,True,True,000,,,,,,,0.0-145.0,,,2,970,[2],stimuli/2010000.jpg,,,1371386,,prediction_trial,170,image-keyboard-response,,
130,Experiment 2,,,,,,,,,2,,,,,,,,,,,,,0.0-146.0,,, ,223,,stimuli/20100002.jpg,,,1371619,,feedback_trial,171,image-keyboard-response,,
130,Experiment 2,False,0,,False,False,101,0,,0,False,False,,False,False,101,,,,,,,0.0-147.0,,,2,3032,"[0, 2]",stimuli/0101101.jpg,,,1374659,,prediction_trial,172,image-keyboard-response,,
130,Experiment 2,,,,,,,,,0,,,,,,,,,,,,,0.0-148.0,,, ,190,,stimuli/01011010.jpg,,,1374859,,feedback_trial,173,image-keyboard-response,,
130,Experiment 2,True,1,,False,False,101,2,,2,False,False,,False,False,101,,,,,,,0.0-149.0,,,2,2327,"[2, 0]",stimuli/2101101.jpg,,,1377195,,prediction_trial,174,image-keyboard-response,,
130,Experiment 2,,,,,,,,,2,,,,,,,,,,,,,0.0-150.0,,, ,319,,stimuli/21011012.jpg,,,1377523,,feedback_trial,175,image-keyboard-response,,
130,Experiment 2,False,0,,True,True,101,1,,1,False,False,,False,False,110,,,,,,,0.0-151.0,,,0,3274,[1],stimuli/1101110.jpg,,,1380807,,prediction_trial,176,image-keyboard-response,,
130,Experiment 2,,,,,,,,,1,,,,,,,,,,,,,0.0-152.0,,, ,507,,stimuli/11011101.jpg,,,1381323,,feedback_trial,177,image-keyboard-response,,
130,Experiment 2,True,1,,False,False,011,1,,1,False,False,,False,False,011,,,,,,,0.0-153.0,,,1,2750,"[2, 1]",stimuli/1011011.jpg,,,1384082,,prediction_trial,178,image-keyboard-response,,
130,Experiment 2,,,,,,,,,2,,,,,,,,,,,,,0.0-154.0,,, ,1167,,stimuli/10110111.jpg,,,1385259,,feedback_trial,179,image-keyboard-response,,
130,Experiment 2,False,0,,False,False,011,1,,2,False,False,,True,True,101,,,,,,,0.0-155.0,,,1,1255,"[1, 2]",stimuli/1011101.jpg,,,1386523,,prediction_trial,180,image-keyboard-response,,
130,Experiment 2,,,,,,,,,1,,,,,,,,,,,,,0.0-156.0,,, ,190,,stimuli/10111012.jpg,,,1386722,,feedback_trial,181,image-keyboard-response,,
130,Experiment 2,False,0,,False,False,110,0,,1,False,False,,True,True,000,,,,,,,0.0-157.0,,,0,1282,"[1, 0]",stimuli/0110000.jpg,,,1388010,,prediction_trial,182,image-keyboard-response,,
130,Experiment 2,,,,,,,,,1,,,,,,,,,,,,,0.0-158.0,,, ,2503,,stimuli/01100001.jpg,,,1390523,,feedback_trial,183,image-keyboard-response,,
130,Experiment 2,False,0,,False,False,110,0,,1,False,False,,False,False,101,,,,,,,0.0-159.0,,,0,4955,"[0, 1]",stimuli/0110101.jpg,,,1395487,,prediction_trial,184,image-keyboard-response,,
130,Experiment 2,,,,,,,,,0,,,,,,,,,,,,,0.0-160.0,,, ,3858,,stimuli/01101011.jpg,,,1399355,,feedback_trial,185,image-keyboard-response,,
130,Experiment 2,True,1,,True,True,010,0,,0,True,True,,True,True,001,,,,,,,0.0-161.0,,,0,4287,[0],stimuli/0010001.jpg,,,1403651,,prediction_trial,186,image-keyboard-response,,
130,Experiment 2,,,,,,,,,0,,,,,,,,,,,,,0.0-162.0,,, ,408,,stimuli/00100010.jpg,,,1404069,,feedback_trial,187,image-keyboard-response,,
130,Experiment 2,False,0,,False,False,101,2,,0,False,False,,True,True,000,,,,,,,0.0-163.0,,,2,1219,"[0, 2]",stimuli/2101000.jpg,,,1405298,,prediction_trial,188,image-keyboard-response,,
130,Experiment 2,,,,,,,,,0,,,,,,,,,,,,,0.0-164.0,,, ,4833,,stimuli/21010000.jpg,,,1410140,,feedback_trial,189,image-keyboard-response,,
130,Experiment 2,True,1,,True,True,000,0,,0,False,True,,False,True,100,,,,,,,0.0-165.0,,,0,2781,[0],stimuli/0000100.jpg,,,1412931,,prediction_trial,190,image-keyboard-response,,
130,Experiment 2,,,,,,,,,0,,,,,,,,,,,,,0.0-166.0,,, ,1816,,stimuli/00001000.jpg,,,1414756,,feedback_trial,191,image-keyboard-response,,
130,Experiment 2,True,1,,False,False,110,1,,0,False,False,,False,False,111,,,,,,,0.0-167.0,,,0,2055,"[1, 0]",stimuli/1110111.jpg,,,1416819,,prediction_trial,192,image-keyboard-response,,
130,Experiment 2,,,,,,,,,1,,,,,,,,,,,,,0.0-168.0,,, ,743,,stimuli/11101110.jpg,,,1417571,,feedback_trial,193,image-keyboard-response,,
130,Experiment 2,True,1,,True,True,100,1,,1,False,False,,False,False,011,,,,,,,0.0-169.0,,,1,2242,[1],stimuli/1100011.jpg,,,1419822,,prediction_trial,194,image-keyboard-response,,
130,Experiment 2,,,,,,,,,1,,,,,,,,,,,,,0.0-170.0,,, ,155,,stimuli/11000111.jpg,,,1419987,,feedback_trial,195,image-keyboard-response,,
130,Experiment 2,True,1,,True,True,000,2,,2,True,True,,True,True,110,,,,,,,0.0-171.0,,,2,1415,[2],stimuli/2000110.jpg,,,1421411,,prediction_trial,196,image-keyboard-response,,
130,Experiment 2,,,,,,,,,2,,,,,,,,,,,,,0.0-172.0,,, ,284,,stimuli/20001102.jpg,,,1421771,,feedback_trial,197,image-keyboard-response,,
130,Experiment 2,True,1,,False,False,110,1,,1,False,False,,True,True,001,,,,,,,0.0-173.0,,,1,1229,"[0, 1]",stimuli/1110001.jpg,,,1423010,,prediction_trial,198,image-keyboard-response,,
130,Experiment 2,,,,,,,,,0,,,,,,,,,,,,,0.0-174.0,,, ,318,,stimuli/11100011.jpg,,,1423338,,feedback_trial,199,image-keyboard-response,,
130,Experiment 2,False,0,,True,True,011,0,,0,False,False,,False,False,111,,,,,,,0.0-175.0,,,1,2360,[0],stimuli/0011111.jpg,,,1425707,,prediction_trial,200,image-keyboard-response,,
130,Experiment 2,,,,,,,,,0,,,,,,,,,,,,,0.0-176.0,,, ,471,,stimuli/00111110.jpg,,,1426188,,feedback_trial,201,image-keyboard-response,,
130,Experiment 2,False,0,,False,False,110,0,,0,False,False,,False,False,110,,,,,,,0.0-177.0,,,1,1773,"[1, 0]",stimuli/0110110.jpg,,,1427971,,prediction_trial,202,image-keyboard-response,,
130,Experiment 2,,,,,,,,,1,,,,,,,,,,,,,0.0-178.0,,, ,220,,stimuli/01101100.jpg,,,1428204,,feedback_trial,203,image-keyboard-response,,
130,Experiment 2,True,1,,True,True,010,0,,0,False,False,,False,False,101,,,,,,,0.0-179.0,,,0,5968,[0],stimuli/0010101.jpg,,,1434183,,prediction_trial,204,image-keyboard-response,,
130,Experiment 2,,,,,,,,,0,,,,,,,,,,,,,0.0-180.0,,, ,1067,,stimuli/00101010.jpg,,,1435259,,feedback_trial,205,image-keyboard-response,,
130,Experiment 2,True,1,,True,True,110,2,,2,True,True,,True,True,110,,,,,,,0.0-181.0,,,2,9140,[2],stimuli/2110110.jpg,,,1444408,,prediction_trial,206,image-keyboard-response,,
130,Experiment 2,,,,,,,,,2,,,,,,,,,,,,,0.0-182.0,,, ,4187,,stimuli/21101102.jpg,,,1448605,,feedback_trial,207,image-keyboard-response,,
130,Experiment 2,False,0,,False,False,011,2,,1,False,False,,True,True,010,,,,,,,0.0-183.0,,,2,5896,"[2, 1]",stimuli/2011010.jpg,,,1454512,,prediction_trial,208,image-keyboard-response,,
130,Experiment 2,,,,,,,,,2,,,,,,,,,,,,,0.0-184.0,,, ,291,,stimuli/20110101.jpg,,,1454812,,feedback_trial,209,image-keyboard-response,,
130,Experiment 2,True,1,,True,True,110,2,,2,False,False,,False,False,111,,,,,,,0.0-185.0,,,2,5566,[2],stimuli/2110111.jpg,,,1460386,,prediction_trial,210,image-keyboard-response,,
130,Experiment 2,,,,,,,,,2,,,,,,,,,,,,,0.0-186.0,,, ,464,,stimuli/21101112.jpg,,,1460860,,feedback_trial,211,image-keyboard-response,,
130,Experiment 2,True,1,,False,False,111,1,,0,False,False,,False,False,110,,,,,,,0.0-187.0,,,0,3549,"[0, 1, 2]",stimuli/1111110.jpg,,,1464422,,prediction_trial,212,image-keyboard-response,,
130,Experiment 2,,,,,,,,,0,,,,,,,,,,,,,0.0-188.0,,, ,306,,stimuli/11111100.jpg,,,1464736,,feedback_trial,213,image-keyboard-response,,
130,Experiment 2,False,0,,True,True,000,2,,2,False,False,,False,False,011,,,,,,,0.0-189.0,,,1,2914,[2],stimuli/2000011.jpg,,,1467659,,prediction_trial,214,image-keyboard-response,,
130,Experiment 2,,,,,,,,,2,,,,,,,,,,,,,0.0-190.0,,, ,439,,stimuli/20000112.jpg,,,1468107,,feedback_trial,215,image-keyboard-response,,
130,Experiment 2,True,1,,True,True,110,2,,2,True,True,,True,True,000,,,,,,,0.0-191.0,,,2,1637,[2],stimuli/2110000.jpg,,,1469756,,prediction_trial,216,image-keyboard-response,,
130,Experiment 2,,,,,,,,,2,,,,,,,,,,,,,0.0-192.0,,, ,182,,stimuli/21100002.jpg,,,1469947,,feedback_trial,217,image-keyboard-response,,
130,Experiment 2,True,1,,False,True,010,1,,1,False,True,,True,True,100,,,,,,,0.0-193.0,,,1,1103,[1],stimuli/1010100.jpg,,,1471058,,prediction_trial,218,image-keyboard-response,,
130,Experiment 2,,,,,,,,,1,,,,,,,,,,,,,0.0-194.0,,, ,247,,stimuli/10101001.jpg,,,1471315,,feedback_trial,219,image-keyboard-response,,
130,Experiment 2,False,0,,True,True,100,2,,2,False,False,,False,False,111,,,,,,,0.0-195.0,,,0,3426,[2],stimuli/2100111.jpg,,,1474751,,prediction_trial,220,image-keyboard-response,,
130,Experiment 2,,,,,,,,,2,,,,,,,,,,,,,0.0-196.0,,, ,930,,stimuli/21001112.jpg,,,1475691,,feedback_trial,221,image-keyboard-response,,
130,Experiment 2,True,1,,False,False,011,2,,2,False,False,,False,False,011,,,,,,,0.0-197.0,,,2,2424,"[2, 1]",stimuli/2011011.jpg,,,1478123,,prediction_trial,222,image-keyboard-response,,
130,Experiment 2,,,,,,,,,2,,,,,,,,,,,,,0.0-198.0,,, ,271,,stimuli/20110112.jpg,,,1478404,,feedback_trial,223,image-keyboard-response,,
