workerid,proliferate.condition,accuracy,accuracy_bool,age,alter_ball_visible,alter_can_infer,alter_occluders,ball_pos,bonus,character_choice,collective_ball_visible,collective_can_infer,correct_response,ego_ball_visible,ego_can_infer,ego_occluders,ethnicity,failed_audio,failed_images,failed_video,feedback,gender,internal_node_id,overall_accuracy,race,response,rt,search_locations,stimulus,stimulus_dict,success,time_elapsed,timeout,trial,trial_index,trial_type,view_history,error
204,Experiment 3,,,,,,,,,,,,,,,,,[],[],[],,,0.0-0.0,,,,,,,,True,11504,False,,0,preload,,
204,Experiment 3,,,,,,,,,,,,,,,,,,,,,,0.0-1.0,,,,,,,,True,14984,,,1,fullscreen,,
204,Experiment 3,,,,,,,,,,,,,,,,,,,,,,0.0-2.0,,,0,2567,,"<p><b>Consent Form</b></p> <div style=""text-align:left;background-color:lightgrey; padding:20px; max-width:900px;""><p>Please consider this information carefully before deciding whether to participate in this research.</p> <p>The purpose of this research is to examine which factors influence social judgment and decision-making. You will be asked to make judgements about individuals and actions in social scenarios. We are simply interested in your judgement. The study will take less than 1 hour to complete, and you will receive less than $20 on Prolific. Your compensation and time commitment are specified in the study description. There are no anticipated risks associated with participating in this study. The effects of participating should be comparable to those you would ordinarily experience from viewing a computer monitor and using a mouse or keyboard for a similar amount of time. At the end of the study, we will provide an explanation of the questions that motivate this line of research and will describe the potential implications. </p><p> Your participation in this study is completely voluntary and you may refuse to participate or you may choose to withdraw at any time without penalty or loss of benefits to you which are otherwise entitled. Your participation in this study will remain confidential. No personally identifiable information will be associated with your data. Also, all analyses of the data will be averaged across all the participants, so your individual responses will never be specifically analyzed. </p><p> If you have questions or concerns about your participation or payment, or want to request a summary of research findings, please contact Dr. Jonathan Phillips at Jonathan.S.Phillips@dartmouth.edu. </p><p> Please save a copy of this form for your records. </p><p><b>Agreement: </b>The nature and purpose of this research have been sufficiently explained and I agree to participate in this study. I understand that I am free to withdraw at any time without incurring any penalty. Please consent by clicking the button below to continue. Otherwise, please exit the study at any time. </p>",,,17555,,,2,html-button-response,,
204,Experiment 3,,,,,,,,,,,,,,,,,,,,,,0.0-3.0-0.0,,,,41124,,,,,58682,,intro,3,instructions,"[{'page_index': 0, 'viewing_time': 2742}, {'page_index': 1, 'viewing_time': 4495}, {'page_index': 2, 'viewing_time': 2297}, {'page_index': 3, 'viewing_time': 2343}, {'page_index': 4, 'viewing_time': 3322}, {'page_index': 5, 'viewing_time': 3284}, {'page_index': 6, 'viewing_time': 1681}, {'page_index': 7, 'viewing_time': 9390}, {'page_index': 8, 'viewing_time': 5582}, {'page_index': 9, 'viewing_time': 4770}, {'page_index': 10, 'viewing_time': 1218}]",
204,Experiment 3,True,,,,,,,,0,,,,,,,,,,,,,0.0-3.0-1.0,,,0,2260,,stimuli/0011111.jpg,"{'ball_pos': 0, 'filepath': 'stimuli/0011111.jpg', 'ego_can_infer': False, 'ego_occluders': '111', 'alter_can_infer': True, 'alter_occluders': '011', 'ego_ball_visible': False, 'search_locations': [0], 'alter_ball_visible': True, 'collective_can_infer': False, 'collective_ball_visible': False}",,60977,,prediction_practice,4,image-keyboard-response,,
204,Experiment 3,,,,,,,,,0,,,,,,,,,,,,,0.0-3.0-2.0,,, ,2154,,stimuli/00111110.jpg,,,63135,,practrice_feedback,5,image-keyboard-response,,
204,Experiment 3,False,,,,,,,,1,,,,,,,,,,,,,0.0-3.0-3.0,,,2,1678,,stimuli/1001011.jpg,"{'ball_pos': 1, 'filepath': 'stimuli/1001011.jpg', 'ego_can_infer': False, 'ego_occluders': '011', 'alter_can_infer': True, 'alter_occluders': '001', 'ego_ball_visible': False, 'search_locations': [1], 'alter_ball_visible': True, 'collective_can_infer': False, 'collective_ball_visible': False}",,64816,,prediction_practice,6,image-keyboard-response,,
204,Experiment 3,,,,,,,,,1,,,,,,,,,,,,,0.0-3.0-4.0,,, ,1179,,stimuli/10010111.jpg,,,65998,,practrice_feedback,7,image-keyboard-response,,
204,Experiment 3,True,,,,,,,,1,,,,,,,,,,,,,0.0-3.0-5.0,,,1,1453,,stimuli/1011101.jpg,"{'ball_pos': 1, 'filepath': 'stimuli/1011101.jpg', 'ego_can_infer': True, 'ego_occluders': '101', 'alter_can_infer': False, 'alter_occluders': '011', 'ego_ball_visible': True, 'search_locations': [1], 'alter_ball_visible': False, 'collective_can_infer': False, 'collective_ball_visible': False}",,67455,,prediction_practice,8,image-keyboard-response,,
204,Experiment 3,,,,,,,,,1,,,,,,,,,,,,,0.0-3.0-6.0,,, ,1739,,stimuli/10111011.jpg,,,69212,,practrice_feedback,9,image-keyboard-response,,
204,Experiment 3,True,,,,,,,,2,,,,,,,,,,,,,0.0-3.0-7.0,,,2,609,,stimuli/2110100.jpg,"{'ball_pos': 2, 'filepath': 'stimuli/2110100.jpg', 'ego_can_infer': True, 'ego_occluders': '100', 'alter_can_infer': True, 'alter_occluders': '110', 'ego_ball_visible': True, 'search_locations': [2], 'alter_ball_visible': True, 'collective_can_infer': True, 'collective_ball_visible': True}",,69824,,prediction_practice,10,image-keyboard-response,,
204,Experiment 3,,,,,,,,,2,,,,,,,,,,,,,0.0-3.0-8.0,,, ,734,,stimuli/21101002.jpg,,,70562,,practrice_feedback,11,image-keyboard-response,,
204,Experiment 3,False,,,,,,,,1,,,,,,,,,,,,,0.0-3.0-9.0,,,0,1384,,stimuli/1100111.jpg,"{'ball_pos': 1, 'filepath': 'stimuli/1100111.jpg', 'ego_can_infer': False, 'ego_occluders': '111', 'alter_can_infer': True, 'alter_occluders': '100', 'ego_ball_visible': False, 'search_locations': [1], 'alter_ball_visible': True, 'collective_can_infer': False, 'collective_ball_visible': False}",,71948,,prediction_practice,12,image-keyboard-response,,
204,Experiment 3,,,,,,,,,1,,,,,,,,,,,,,0.0-3.0-10.0,,, ,1117,,stimuli/11001111.jpg,,,73069,,practrice_feedback,13,image-keyboard-response,,
204,Experiment 3,True,,,,,,,,1,,,,,,,,,,,,,0.0-3.0-11.0,,,1,1002,,stimuli/1101001.jpg,"{'ball_pos': 1, 'filepath': 'stimuli/1101001.jpg', 'ego_can_infer': True, 'ego_occluders': '001', 'alter_can_infer': True, 'alter_occluders': '101', 'ego_ball_visible': True, 'search_locations': [1], 'alter_ball_visible': True, 'collective_can_infer': True, 'collective_ball_visible': True}",,74088,,prediction_practice,14,image-keyboard-response,,
204,Experiment 3,,,,,,,,,1,,,,,,,,,,,,,0.0-3.0-12.0,,, ,729,,stimuli/11010011.jpg,,,74820,,practrice_feedback,15,image-keyboard-response,,
204,Experiment 3,True,,,,,,,,2,,,,,,,,,,,,,0.0-3.0-13.0,,,2,1120,,stimuli/2111111.jpg,"{'ball_pos': 2, 'filepath': 'stimuli/2111111.jpg', 'ego_can_infer': False, 'ego_occluders': '111', 'alter_can_infer': False, 'alter_occluders': '111', 'ego_ball_visible': False, 'search_locations': [2], 'alter_ball_visible': False, 'collective_can_infer': False, 'collective_ball_visible': False}",,75942,,prediction_practice,16,image-keyboard-response,,
204,Experiment 3,,,,,,,,,2,,,,,,,,,,,,,0.0-3.0-14.0,,, ,1229,,stimuli/21111112.jpg,,,77174,,practrice_feedback,17,image-keyboard-response,,
204,Experiment 3,True,,,,,,,,0,,,,,,,,,,,,,0.0-3.0-15.0,,,0,1090,,stimuli/0110001.jpg,"{'ball_pos': 0, 'filepath': 'stimuli/0110001.jpg', 'ego_can_infer': True, 'ego_occluders': '001', 'alter_can_infer': False, 'alter_occluders': '110', 'ego_ball_visible': True, 'search_locations': [0], 'alter_ball_visible': False, 'collective_can_infer': False, 'collective_ball_visible': False}",,78278,,prediction_practice,18,image-keyboard-response,,
204,Experiment 3,,,,,,,,,0,,,,,,,,,,,,,0.0-3.0-16.0,,, ,771,,stimuli/01100010.jpg,,,79052,,practrice_feedback,19,image-keyboard-response,,
204,Experiment 3,True,,,,,,,,2,,,,,,,,,,,,,0.0-3.0-17.0,,,2,663,,stimuli/2000001.jpg,"{'ball_pos': 2, 'filepath': 'stimuli/2000001.jpg', 'ego_can_infer': True, 'ego_occluders': '001', 'alter_can_infer': True, 'alter_occluders': '000', 'ego_ball_visible': False, 'search_locations': [2], 'alter_ball_visible': True, 'collective_can_infer': True, 'collective_ball_visible': False}",,79718,,prediction_practice,20,image-keyboard-response,,
204,Experiment 3,,,,,,,,,2,,,,,,,,,,,,,0.0-3.0-18.0,,, ,1423,,stimuli/20000012.jpg,,,81144,,practrice_feedback,21,image-keyboard-response,,
204,Experiment 3,False,,,,,,,,1,,,,,,,,,,,,,0.0-3.0-19.0,,,2,1037,,stimuli/1010111.jpg,"{'ball_pos': 1, 'filepath': 'stimuli/1010111.jpg', 'ego_can_infer': False, 'ego_occluders': '111', 'alter_can_infer': True, 'alter_occluders': '010', 'ego_ball_visible': False, 'search_locations': [1], 'alter_ball_visible': False, 'collective_can_infer': False, 'collective_ball_visible': False}",,82183,,prediction_practice,22,image-keyboard-response,,
204,Experiment 3,,,,,,,,,1,,,,,,,,,,,,,0.0-3.0-20.0,,, ,884,,stimuli/10101111.jpg,,,83069,,practrice_feedback,23,image-keyboard-response,,
204,Experiment 3,,,,,,,,,,,,,,,,,,,,,,0.0-3.0-21.0,,,0,2625,,"Now that you've had some practice, you'll be tested with a couple of easy trials. If you correctly predict the ball's location, you'll move on to complete the experiment!",,,85697,,,24,html-button-response,,
204,Experiment 3,True,,,,,,,,,,,arrowleft,,,,,,,,,,0.0-3.0-22.0-0.0,,,arrowleft,1101,,stimuli/0000011.jpg,,,86800,,comprehension_quiz,25,image-keyboard-response,,
204,Experiment 3,True,,,,,,,,,,, ,,,,,,,,,,0.0-3.0-22.0-1.0,,, ,1101,,stimuli/00000110.jpg,,,87905,,comprehension_quiz,26,image-keyboard-response,,
204,Experiment 3,True,,,,,,,,,,,arrowdown,,,,,,,,,,0.0-3.0-22.0-2.0,,,arrowdown,1130,,stimuli/1010010.jpg,,,89053,,comprehension_quiz,27,image-keyboard-response,,
204,Experiment 3,True,,,,,,,,,,, ,,,,,,,,,,0.0-3.0-22.0-3.0,,, ,636,,stimuli/10100101.jpg,,,89692,,comprehension_quiz,28,image-keyboard-response,,
204,Experiment 3,,,,,,,,,,,,,,,,,,,,,,0.0-4.0,,,0,1700,,The experiment will now begin.,,,91397,,,29,html-button-response,,
204,Experiment 3,True,1,,True,True,001,0,,0,True,True,,True,True,011,,,,,,,0.0-5.0,,,0,943,[0],stimuli/0001011.jpg,,,92343,,prediction_trial,30,image-keyboard-response,,
204,Experiment 3,,,,,,,,,0,,,,,,,,,,,,,0.0-6.0,,, ,713,,stimuli/00010110.jpg,,,93059,,feedback_trial,31,image-keyboard-response,,
204,Experiment 3,True,1,,True,True,100,1,,1,False,False,,False,False,110,,,,,,,0.0-7.0,,,1,1417,[1],stimuli/1100110.jpg,,,94479,,prediction_trial,32,image-keyboard-response,,
204,Experiment 3,,,,,,,,,1,,,,,,,,,,,,,0.0-8.0,,, ,767,,stimuli/11001101.jpg,,,95263,,feedback_trial,33,image-keyboard-response,,
204,Experiment 3,False,0,,False,False,111,0,,0,False,False,,False,False,101,,,,,,,0.0-9.0,,,2,1294,[0],stimuli/0111101.jpg,,,96560,,prediction_trial,34,image-keyboard-response,,
204,Experiment 3,,,,,,,,,0,,,,,,,,,,,,,0.0-10.0,,, ,1106,,stimuli/01111010.jpg,,,97669,,feedback_trial,35,image-keyboard-response,,
204,Experiment 3,False,0,,False,False,011,1,,1,False,False,,False,False,110,,,,,,,0.0-11.0,,,0,1676,[1],stimuli/1011110.jpg,,,99347,,prediction_trial,36,image-keyboard-response,,
204,Experiment 3,,,,,,,,,1,,,,,,,,,,,,,0.0-12.0,,, ,744,,stimuli/10111101.jpg,,,100093,,feedback_trial,37,image-keyboard-response,,
204,Experiment 3,True,1,,True,True,010,2,,2,True,True,,True,True,010,,,,,,,0.0-13.0,,,2,800,[2],stimuli/2010010.jpg,,,100909,,prediction_trial,38,image-keyboard-response,,
204,Experiment 3,,,,,,,,,2,,,,,,,,,,,,,0.0-14.0,,, ,706,,stimuli/20100102.jpg,,,101618,,feedback_trial,39,image-keyboard-response,,
204,Experiment 3,False,0,,False,False,111,0,,0,False,False,,False,False,111,,,,,,,0.0-15.0,,,1,1089,[0],stimuli/0111111.jpg,,,102709,,prediction_trial,40,image-keyboard-response,,
204,Experiment 3,,,,,,,,,0,,,,,,,,,,,,,0.0-16.0,,, ,712,,stimuli/01111110.jpg,,,103424,,feedback_trial,41,image-keyboard-response,,
204,Experiment 3,True,1,,False,False,110,1,,1,False,False,,True,True,100,,,,,,,0.0-17.0,,,1,704,[1],stimuli/1110100.jpg,,,104131,,prediction_trial,42,image-keyboard-response,,
204,Experiment 3,,,,,,,,,1,,,,,,,,,,,,,0.0-18.0,,, ,543,,stimuli/11101001.jpg,,,104690,,feedback_trial,43,image-keyboard-response,,
204,Experiment 3,True,1,,False,False,101,2,,2,False,False,,True,True,010,,,,,,,0.0-19.0,,,2,611,[2],stimuli/2101010.jpg,,,105300,,prediction_trial,44,image-keyboard-response,,
204,Experiment 3,,,,,,,,,2,,,,,,,,,,,,,0.0-20.0,,, ,651,,stimuli/21010102.jpg,,,105954,,feedback_trial,45,image-keyboard-response,,
204,Experiment 3,True,1,,True,True,100,1,,1,True,True,,True,True,001,,,,,,,0.0-21.0,,,1,728,[1],stimuli/1100001.jpg,,,106684,,prediction_trial,46,image-keyboard-response,,
204,Experiment 3,,,,,,,,,1,,,,,,,,,,,,,0.0-22.0,,, ,693,,stimuli/11000011.jpg,,,107380,,feedback_trial,47,image-keyboard-response,,
204,Experiment 3,True,1,,True,True,011,0,,0,True,True,,True,True,010,,,,,,,0.0-23.0,,,0,756,[0],stimuli/0011010.jpg,,,108152,,prediction_trial,48,image-keyboard-response,,
204,Experiment 3,,,,,,,,,0,,,,,,,,,,,,,0.0-24.0,,, ,574,,stimuli/00110100.jpg,,,108729,,feedback_trial,49,image-keyboard-response,,
204,Experiment 3,True,1,,False,False,011,2,,2,False,False,,False,False,111,,,,,,,0.0-25.0,,,2,1234,[2],stimuli/2011111.jpg,,,109966,,prediction_trial,50,image-keyboard-response,,
204,Experiment 3,,,,,,,,,2,,,,,,,,,,,,,0.0-26.0,,, ,812,,stimuli/20111112.jpg,,,110781,,feedback_trial,51,image-keyboard-response,,
204,Experiment 3,True,1,,True,True,100,1,,1,True,True,,True,True,101,,,,,,,0.0-27.0,,,1,927,[1],stimuli/1100101.jpg,,,111710,,prediction_trial,52,image-keyboard-response,,
204,Experiment 3,,,,,,,,,1,,,,,,,,,,,,,0.0-28.0,,, ,530,,stimuli/11001011.jpg,,,112255,,feedback_trial,53,image-keyboard-response,,
204,Experiment 3,True,1,,False,False,111,1,,1,False,False,,True,True,101,,,,,,,0.0-29.0,,,1,773,[1],stimuli/1111101.jpg,,,113031,,prediction_trial,54,image-keyboard-response,,
204,Experiment 3,,,,,,,,,1,,,,,,,,,,,,,0.0-30.0,,, ,642,,stimuli/11111011.jpg,,,113675,,feedback_trial,55,image-keyboard-response,,
204,Experiment 3,True,1,,False,False,110,1,,1,False,False,,True,True,001,,,,,,,0.0-31.0,,,1,643,[1],stimuli/1110001.jpg,,,114321,,prediction_trial,56,image-keyboard-response,,
204,Experiment 3,,,,,,,,,1,,,,,,,,,,,,,0.0-32.0,,, ,617,,stimuli/11100011.jpg,,,114941,,feedback_trial,57,image-keyboard-response,,
204,Experiment 3,True,1,,True,True,010,2,,2,False,False,,False,False,011,,,,,,,0.0-33.0,,,2,908,[2],stimuli/2010011.jpg,,,115865,,prediction_trial,58,image-keyboard-response,,
204,Experiment 3,,,,,,,,,2,,,,,,,,,,,,,0.0-34.0,,, ,725,,stimuli/20100112.jpg,,,116593,,feedback_trial,59,image-keyboard-response,,
204,Experiment 3,True,1,,False,True,100,0,,0,False,False,,False,False,110,,,,,,,0.0-35.0,,,0,909,[0],stimuli/0100110.jpg,,,117504,,prediction_trial,60,image-keyboard-response,,
204,Experiment 3,,,,,,,,,0,,,,,,,,,,,,,0.0-36.0,,, ,739,,stimuli/01001100.jpg,,,118246,,feedback_trial,61,image-keyboard-response,,
204,Experiment 3,True,1,,False,False,111,2,,2,False,False,,True,True,000,,,,,,,0.0-37.0,,,2,757,[2],stimuli/2111000.jpg,,,119005,,prediction_trial,62,image-keyboard-response,,
204,Experiment 3,,,,,,,,,2,,,,,,,,,,,,,0.0-38.0,,, ,676,,stimuli/21110002.jpg,,,119689,,feedback_trial,63,image-keyboard-response,,
204,Experiment 3,True,1,,False,True,010,1,,1,False,True,,True,True,000,,,,,,,0.0-39.0,,,1,588,[1],stimuli/1010000.jpg,,,120280,,prediction_trial,64,image-keyboard-response,,
204,Experiment 3,,,,,,,,,1,,,,,,,,,,,,,0.0-40.0,,, ,590,,stimuli/10100001.jpg,,,120872,,feedback_trial,65,image-keyboard-response,,
204,Experiment 3,True,1,,True,True,010,0,,0,True,True,,True,True,000,,,,,,,0.0-41.0,,,0,615,[0],stimuli/0010000.jpg,,,121490,,prediction_trial,66,image-keyboard-response,,
204,Experiment 3,,,,,,,,,0,,,,,,,,,,,,,0.0-42.0,,, ,518,,stimuli/00100000.jpg,,,122010,,feedback_trial,67,image-keyboard-response,,
204,Experiment 3,True,1,,True,True,100,2,,2,True,True,,True,True,000,,,,,,,0.0-43.0,,,2,557,[2],stimuli/2100000.jpg,,,122583,,prediction_trial,68,image-keyboard-response,,
204,Experiment 3,,,,,,,,,2,,,,,,,,,,,,,0.0-44.0,,, ,508,,stimuli/21000002.jpg,,,123094,,feedback_trial,69,image-keyboard-response,,
204,Experiment 3,False,0,,False,False,111,2,,2,False,False,,False,False,011,,,,,,,0.0-45.0,,,1,1030,[2],stimuli/2111011.jpg,,,124127,,prediction_trial,70,image-keyboard-response,,
204,Experiment 3,,,,,,,,,2,,,,,,,,,,,,,0.0-46.0,,, ,664,,stimuli/21110112.jpg,,,124793,,feedback_trial,71,image-keyboard-response,,
204,Experiment 3,False,0,,False,False,011,2,,2,False,False,,False,False,011,,,,,,,0.0-47.0,,,1,950,[2],stimuli/2011011.jpg,,,125746,,prediction_trial,72,image-keyboard-response,,
204,Experiment 3,,,,,,,,,2,,,,,,,,,,,,,0.0-48.0,,, ,586,,stimuli/20110112.jpg,,,126349,,feedback_trial,73,image-keyboard-response,,
204,Experiment 3,True,1,,True,True,100,2,,2,True,True,,True,True,010,,,,,,,0.0-49.0,,,2,664,[2],stimuli/2100010.jpg,,,127015,,prediction_trial,74,image-keyboard-response,,
204,Experiment 3,,,,,,,,,2,,,,,,,,,,,,,0.0-50.0,,, ,568,,stimuli/21000102.jpg,,,127586,,feedback_trial,75,image-keyboard-response,,
204,Experiment 3,True,1,,True,True,101,1,,1,True,True,,True,True,100,,,,,,,0.0-51.0,,,1,592,[1],stimuli/1101100.jpg,,,128180,,prediction_trial,76,image-keyboard-response,,
204,Experiment 3,,,,,,,,,1,,,,,,,,,,,,,0.0-52.0,,, ,474,,stimuli/11011001.jpg,,,128657,,feedback_trial,77,image-keyboard-response,,
204,Experiment 3,False,0,,True,True,100,1,,1,False,False,,False,False,011,,,,,,,0.0-53.0,,,2,1220,[1],stimuli/1100011.jpg,,,129895,,prediction_trial,78,image-keyboard-response,,
204,Experiment 3,,,,,,,,,1,,,,,,,,,,,,,0.0-54.0,,, ,639,,stimuli/11000111.jpg,,,130536,,feedback_trial,79,image-keyboard-response,,
204,Experiment 3,True,1,,True,True,001,0,,0,False,True,,False,True,100,,,,,,,0.0-55.0,,,0,1303,[0],stimuli/0001100.jpg,,,131842,,prediction_trial,80,image-keyboard-response,,
204,Experiment 3,,,,,,,,,0,,,,,,,,,,,,,0.0-56.0,,, ,612,,stimuli/00011000.jpg,,,132456,,feedback_trial,81,image-keyboard-response,,
204,Experiment 3,True,1,,False,False,011,1,,1,False,False,,True,True,101,,,,,,,0.0-57.0,,,1,534,[1],stimuli/1011101.jpg,,,132993,,prediction_trial,82,image-keyboard-response,,
204,Experiment 3,,,,,,,,,1,,,,,,,,,,,,,0.0-58.0,,, ,718,,stimuli/10111011.jpg,,,133728,,feedback_trial,83,image-keyboard-response,,
204,Experiment 3,True,1,,True,True,110,2,,2,False,True,,False,True,001,,,,,,,0.0-59.0,,,2,589,[2],stimuli/2110001.jpg,,,134320,,prediction_trial,84,image-keyboard-response,,
204,Experiment 3,,,,,,,,,2,,,,,,,,,,,,,0.0-60.0,,, ,546,,stimuli/21100012.jpg,,,134868,,feedback_trial,85,image-keyboard-response,,
204,Experiment 3,True,1,,True,True,011,0,,0,True,True,,True,True,011,,,,,,,0.0-61.0,,,0,648,[0],stimuli/0011011.jpg,,,135532,,prediction_trial,86,image-keyboard-response,,
204,Experiment 3,,,,,,,,,0,,,,,,,,,,,,,0.0-62.0,,, ,485,,stimuli/00110110.jpg,,,136020,,feedback_trial,87,image-keyboard-response,,
204,Experiment 3,False,0,,True,True,011,0,,0,False,False,,False,False,110,,,,,,,0.0-63.0,,,1,681,[0],stimuli/0011110.jpg,,,136703,,prediction_trial,88,image-keyboard-response,,
204,Experiment 3,,,,,,,,,0,,,,,,,,,,,,,0.0-64.0,,, ,564,,stimuli/00111100.jpg,,,137270,,feedback_trial,89,image-keyboard-response,,
204,Experiment 3,False,0,,True,True,000,0,,0,False,False,,False,False,101,,,,,,,0.0-65.0,,,2,682,[0],stimuli/0000101.jpg,,,137954,,prediction_trial,90,image-keyboard-response,,
204,Experiment 3,,,,,,,,,0,,,,,,,,,,,,,0.0-66.0,,, ,616,,stimuli/00001010.jpg,,,138586,,feedback_trial,91,image-keyboard-response,,
204,Experiment 3,True,1,,True,True,101,1,,1,False,True,,False,True,010,,,,,,,0.0-67.0,,,1,1024,[1],stimuli/1101010.jpg,,,139613,,prediction_trial,92,image-keyboard-response,,
204,Experiment 3,,,,,,,,,1,,,,,,,,,,,,,0.0-68.0,,, ,357,,stimuli/11010101.jpg,,,139972,,feedback_trial,93,image-keyboard-response,,
204,Experiment 3,True,1,,True,True,101,1,,1,True,True,,True,True,101,,,,,,,0.0-69.0,,,1,621,[1],stimuli/1101101.jpg,,,140596,,prediction_trial,94,image-keyboard-response,,
204,Experiment 3,,,,,,,,,1,,,,,,,,,,,,,0.0-70.0,,, ,437,,stimuli/11011011.jpg,,,141035,,feedback_trial,95,image-keyboard-response,,
204,Experiment 3,False,0,,True,True,101,1,,1,False,False,,False,False,011,,,,,,,0.0-71.0,,,2,801,[1],stimuli/1101011.jpg,,,141853,,prediction_trial,96,image-keyboard-response,,
204,Experiment 3,,,,,,,,,1,,,,,,,,,,,,,0.0-72.0,,, ,600,,stimuli/11010111.jpg,,,142456,,feedback_trial,97,image-keyboard-response,,
204,Experiment 3,True,1,,False,True,001,2,,2,False,True,,False,True,001,,,,,,,0.0-73.0,,,2,822,[2],stimuli/2001001.jpg,,,143280,,prediction_trial,98,image-keyboard-response,,
204,Experiment 3,,,,,,,,,2,,,,,,,,,,,,,0.0-74.0,,, ,485,,stimuli/20010012.jpg,,,143768,,feedback_trial,99,image-keyboard-response,,
204,Experiment 3,True,1,,True,True,001,0,,0,False,False,,False,False,111,,,,,,,0.0-75.0,,,0,761,[0],stimuli/0001111.jpg,,,144544,,prediction_trial,100,image-keyboard-response,,
204,Experiment 3,,,,,,,,,0,,,,,,,,,,,,,0.0-76.0,,, ,619,,stimuli/00011110.jpg,,,145166,,feedback_trial,101,image-keyboard-response,,
204,Experiment 3,True,1,,False,False,110,0,,0,False,False,,False,True,100,,,,,,,0.0-77.0,,,0,1048,[0],stimuli/0110100.jpg,,,146217,,prediction_trial,102,image-keyboard-response,,
204,Experiment 3,,,,,,,,,0,,,,,,,,,,,,,0.0-78.0,,, ,465,,stimuli/01101000.jpg,,,146684,,feedback_trial,103,image-keyboard-response,,
204,Experiment 3,True,1,,False,False,101,2,,2,False,False,,False,True,001,,,,,,,0.0-79.0,,,2,689,[2],stimuli/2101001.jpg,,,147375,,prediction_trial,104,image-keyboard-response,,
204,Experiment 3,,,,,,,,,2,,,,,,,,,,,,,0.0-80.0,,, ,533,,stimuli/21010012.jpg,,,147925,,feedback_trial,105,image-keyboard-response,,
204,Experiment 3,True,1,,True,True,000,0,,0,True,True,,True,True,011,,,,,,,0.0-81.0,,,0,654,[0],stimuli/0000011.jpg,,,148581,,prediction_trial,106,image-keyboard-response,,
204,Experiment 3,,,,,,,,,0,,,,,,,,,,,,,0.0-82.0,,, ,488,,stimuli/00000110.jpg,,,149072,,feedback_trial,107,image-keyboard-response,,
204,Experiment 3,True,1,,False,False,011,1,,1,False,False,,False,True,010,,,,,,,0.0-83.0,,,1,580,[1],stimuli/1011010.jpg,,,149654,,prediction_trial,108,image-keyboard-response,,
204,Experiment 3,,,,,,,,,1,,,,,,,,,,,,,0.0-84.0,,, ,515,,stimuli/10110101.jpg,,,150171,,feedback_trial,109,image-keyboard-response,,
204,Experiment 3,False,0,,True,True,110,2,,2,False,False,,False,False,111,,,,,,,0.0-85.0,,,0,1033,[2],stimuli/2110111.jpg,,,151207,,prediction_trial,110,image-keyboard-response,,
204,Experiment 3,,,,,,,,,2,,,,,,,,,,,,,0.0-86.0,,, ,569,,stimuli/21101112.jpg,,,151779,,feedback_trial,111,image-keyboard-response,,
204,Experiment 3,True,1,,False,True,010,1,,1,False,True,,True,True,100,,,,,,,0.0-87.0,,,1,624,[1],stimuli/1010100.jpg,,,152405,,prediction_trial,112,image-keyboard-response,,
204,Experiment 3,,,,,,,,,1,,,,,,,,,,,,,0.0-88.0,,, ,428,,stimuli/10101001.jpg,,,152836,,feedback_trial,113,image-keyboard-response,,
204,Experiment 3,True,1,,True,True,110,2,,2,True,True,,True,True,000,,,,,,,0.0-89.0,,,2,573,[2],stimuli/2110000.jpg,,,153425,,prediction_trial,114,image-keyboard-response,,
204,Experiment 3,,,,,,,,,2,,,,,,,,,,,,,0.0-90.0,,, ,493,,stimuli/21100002.jpg,,,153921,,feedback_trial,115,image-keyboard-response,,
204,Experiment 3,True,1,,False,False,011,2,,2,False,False,,False,True,001,,,,,,,0.0-91.0,,,2,664,[2],stimuli/2011001.jpg,,,154589,,prediction_trial,116,image-keyboard-response,,
204,Experiment 3,,,,,,,,,2,,,,,,,,,,,,,0.0-92.0,,, ,539,,stimuli/20110012.jpg,,,155130,,feedback_trial,117,image-keyboard-response,,
204,Experiment 3,False,0,,True,True,001,1,,1,False,False,,False,False,111,,,,,,,0.0-93.0,,,0,894,[1],stimuli/1001111.jpg,,,156026,,prediction_trial,118,image-keyboard-response,,
204,Experiment 3,,,,,,,,,1,,,,,,,,,,,,,0.0-94.0,,, ,511,,stimuli/10011111.jpg,,,156554,,feedback_trial,119,image-keyboard-response,,
204,Experiment 3,True,1,,False,True,100,0,,0,False,True,,False,True,100,,,,,,,0.0-95.0,,,0,1046,[0],stimuli/0100100.jpg,,,157602,,prediction_trial,120,image-keyboard-response,,
204,Experiment 3,,,,,,,,,0,,,,,,,,,,,,,0.0-96.0,,, ,507,,stimuli/01001000.jpg,,,158112,,feedback_trial,121,image-keyboard-response,,
204,Experiment 3,True,1,,True,True,001,1,,1,False,False,,False,False,110,,,,,,,0.0-97.0,,,1,852,[1],stimuli/1001110.jpg,,,158967,,prediction_trial,122,image-keyboard-response,,
204,Experiment 3,,,,,,,,,1,,,,,,,,,,,,,0.0-98.0,,, ,547,,stimuli/10011101.jpg,,,159530,,feedback_trial,123,image-keyboard-response,,
204,Experiment 3,True,1,,False,True,001,2,,2,False,True,,True,True,100,,,,,,,0.0-99.0,,,2,597,[2],stimuli/2001100.jpg,,,160130,,prediction_trial,124,image-keyboard-response,,
204,Experiment 3,,,,,,,,,2,,,,,,,,,,,,,0.0-100.0,,, ,565,,stimuli/20011002.jpg,,,160697,,feedback_trial,125,image-keyboard-response,,
204,Experiment 3,True,1,,False,False,110,0,,0,False,False,,True,True,000,,,,,,,0.0-101.0,,,0,629,[0],stimuli/0110000.jpg,,,161329,,prediction_trial,126,image-keyboard-response,,
204,Experiment 3,,,,,,,,,0,,,,,,,,,,,,,0.0-102.0,,, ,525,,stimuli/01100000.jpg,,,161858,,feedback_trial,127,image-keyboard-response,,
204,Experiment 3,True,1,,True,True,010,0,,0,True,True,,True,True,011,,,,,,,0.0-103.0,,,0,643,[0],stimuli/0010011.jpg,,,162518,,prediction_trial,128,image-keyboard-response,,
204,Experiment 3,,,,,,,,,0,,,,,,,,,,,,,0.0-104.0,,, ,535,,stimuli/00100110.jpg,,,163056,,feedback_trial,129,image-keyboard-response,,
204,Experiment 3,False,0,,True,True,100,2,,2,False,False,,False,False,111,,,,,,,0.0-105.0,,,1,1110,[2],stimuli/2100111.jpg,,,164168,,prediction_trial,130,image-keyboard-response,,
204,Experiment 3,,,,,,,,,2,,,,,,,,,,,,,0.0-106.0,,, ,556,,stimuli/21001112.jpg,,,164727,,feedback_trial,131,image-keyboard-response,,
204,Experiment 3,True,1,,True,True,000,2,,2,True,True,,True,True,000,,,,,,,0.0-107.0,,,2,595,[2],stimuli/2000000.jpg,,,165326,,prediction_trial,132,image-keyboard-response,,
204,Experiment 3,,,,,,,,,2,,,,,,,,,,,,,0.0-108.0,,, ,523,,stimuli/20000002.jpg,,,165867,,feedback_trial,133,image-keyboard-response,,
204,Experiment 3,True,1,,False,False,110,1,,1,False,False,,True,True,000,,,,,,,0.0-109.0,,,1,578,[1],stimuli/1110000.jpg,,,166449,,prediction_trial,134,image-keyboard-response,,
204,Experiment 3,,,,,,,,,1,,,,,,,,,,,,,0.0-110.0,,, ,480,,stimuli/11100001.jpg,,,166932,,feedback_trial,135,image-keyboard-response,,
204,Experiment 3,False,0,,False,True,001,2,,2,False,False,,False,False,101,,,,,,,0.0-111.0,,,0,829,[2],stimuli/2001101.jpg,,,167763,,prediction_trial,136,image-keyboard-response,,
204,Experiment 3,,,,,,,,,2,,,,,,,,,,,,,0.0-112.0,,, ,579,,stimuli/20011012.jpg,,,168345,,feedback_trial,137,image-keyboard-response,,
204,Experiment 3,True,1,,True,True,011,0,,0,True,True,,True,True,001,,,,,,,0.0-113.0,,,0,617,[0],stimuli/0011001.jpg,,,168978,,prediction_trial,138,image-keyboard-response,,
204,Experiment 3,,,,,,,,,0,,,,,,,,,,,,,0.0-114.0,,, ,621,,stimuli/00110010.jpg,,,169602,,feedback_trial,139,image-keyboard-response,,
204,Experiment 3,True,1,,True,True,100,1,,1,True,True,,True,True,100,,,,,,,0.0-115.0,,,1,613,[1],stimuli/1100100.jpg,,,170218,,prediction_trial,140,image-keyboard-response,,
204,Experiment 3,,,,,,,,,1,,,,,,,,,,,,,0.0-116.0,,, ,541,,stimuli/11001001.jpg,,,170762,,feedback_trial,141,image-keyboard-response,,
204,Experiment 3,True,1,,False,False,111,2,,2,False,False,,False,False,111,,,,,,,0.0-117.0,,,2,628,[2],stimuli/2111111.jpg,,,171393,,prediction_trial,142,image-keyboard-response,,
204,Experiment 3,,,,,,,,,2,,,,,,,,,,,,,0.0-118.0,,, ,664,,stimuli/21111112.jpg,,,172074,,feedback_trial,143,image-keyboard-response,,
204,Experiment 3,False,0,,True,True,101,1,,1,False,False,,False,False,110,,,,,,,0.0-119.0,,,0,1203,[1],stimuli/1101110.jpg,,,173279,,prediction_trial,144,image-keyboard-response,,
204,Experiment 3,,,,,,,,,1,,,,,,,,,,,,,0.0-120.0,,, ,825,,stimuli/11011101.jpg,,,174107,,feedback_trial,145,image-keyboard-response,,
204,Experiment 3,False,0,,True,True,000,2,,2,False,False,,False,False,011,,,,,,,0.0-121.0,,,1,993,[2],stimuli/2000011.jpg,,,175102,,prediction_trial,146,image-keyboard-response,,
204,Experiment 3,,,,,,,,,2,,,,,,,,,,,,,0.0-122.0,,, ,509,,stimuli/20000112.jpg,,,175628,,feedback_trial,147,image-keyboard-response,,
204,Experiment 3,True,1,,True,True,110,2,,2,True,True,,True,True,100,,,,,,,0.0-123.0,,,2,619,[2],stimuli/2110100.jpg,,,176251,,prediction_trial,148,image-keyboard-response,,
204,Experiment 3,,,,,,,,,2,,,,,,,,,,,,,0.0-124.0,,, ,506,,stimuli/21101002.jpg,,,176759,,feedback_trial,149,image-keyboard-response,,
204,Experiment 3,True,1,,True,True,010,2,,2,True,True,,True,True,110,,,,,,,0.0-125.0,,,2,585,[2],stimuli/2010110.jpg,,,177347,,prediction_trial,150,image-keyboard-response,,
204,Experiment 3,,,,,,,,,2,,,,,,,,,,,,,0.0-126.0,,, ,528,,stimuli/20101102.jpg,,,177892,,feedback_trial,151,image-keyboard-response,,
204,Experiment 3,True,1,,True,True,110,2,,2,False,False,,False,False,011,,,,,,,0.0-127.0,,,2,1268,[2],stimuli/2110011.jpg,,,179163,,prediction_trial,152,image-keyboard-response,,
204,Experiment 3,,,,,,,,,2,,,,,,,,,,,,,0.0-128.0,,, ,631,,stimuli/21100112.jpg,,,179797,,feedback_trial,153,image-keyboard-response,,
204,Experiment 3,False,0,,False,False,101,0,,0,False,False,,False,False,111,,,,,,,0.0-129.0,,,1,1540,[0],stimuli/0101111.jpg,,,181339,,prediction_trial,154,image-keyboard-response,,
204,Experiment 3,,,,,,,,,0,,,,,,,,,,,,,0.0-130.0,,, ,531,,stimuli/01011110.jpg,,,181873,,feedback_trial,155,image-keyboard-response,,
204,Experiment 3,True,1,,True,True,000,0,,0,True,True,,True,True,010,,,,,,,0.0-131.0,,,0,590,[0],stimuli/0000010.jpg,,,182480,,prediction_trial,156,image-keyboard-response,,
204,Experiment 3,,,,,,,,,0,,,,,,,,,,,,,0.0-132.0,,, ,418,,stimuli/00000100.jpg,,,182902,,feedback_trial,157,image-keyboard-response,,
204,Experiment 3,True,1,,False,False,111,2,,2,False,False,,True,True,010,,,,,,,0.0-133.0,,,2,514,[2],stimuli/2111010.jpg,,,183419,,prediction_trial,158,image-keyboard-response,,
204,Experiment 3,,,,,,,,,2,,,,,,,,,,,,,0.0-134.0,,, ,513,,stimuli/21110102.jpg,,,183935,,feedback_trial,159,image-keyboard-response,,
204,Experiment 3,True,1,,False,False,111,0,,0,False,False,,False,True,100,,,,,,,0.0-135.0,,,0,738,[0],stimuli/0111100.jpg,,,184691,,prediction_trial,160,image-keyboard-response,,
204,Experiment 3,,,,,,,,,0,,,,,,,,,,,,,0.0-136.0,,, ,1033,,stimuli/01111000.jpg,,,185727,,feedback_trial,161,image-keyboard-response,,
204,Experiment 3,False,0,,True,True,100,1,,1,False,False,,False,False,111,,,,,,,0.0-137.0,,,2,808,[1],stimuli/1100111.jpg,,,186538,,prediction_trial,162,image-keyboard-response,,
204,Experiment 3,,,,,,,,,1,,,,,,,,,,,,,0.0-138.0,,, ,659,,stimuli/11001111.jpg,,,187200,,feedback_trial,163,image-keyboard-response,,
204,Experiment 3,True,1,,False,False,101,2,,2,False,False,,True,True,110,,,,,,,0.0-139.0,,,2,701,[2],stimuli/2101110.jpg,,,187903,,prediction_trial,164,image-keyboard-response,,
204,Experiment 3,,,,,,,,,2,,,,,,,,,,,,,0.0-140.0,,, ,569,,stimuli/21011102.jpg,,,188475,,feedback_trial,165,image-keyboard-response,,
204,Experiment 3,False,0,,True,True,100,2,,2,False,False,,False,False,011,,,,,,,0.0-141.0,,,1,823,[2],stimuli/2100011.jpg,,,189300,,prediction_trial,166,image-keyboard-response,,
204,Experiment 3,,,,,,,,,2,,,,,,,,,,,,,0.0-142.0,,, ,493,,stimuli/21000112.jpg,,,189795,,feedback_trial,167,image-keyboard-response,,
204,Experiment 3,True,1,,True,True,101,1,,1,True,True,,True,True,001,,,,,,,0.0-143.0,,,1,574,[1],stimuli/1101001.jpg,,,190372,,prediction_trial,168,image-keyboard-response,,
204,Experiment 3,,,,,,,,,1,,,,,,,,,,,,,0.0-144.0,,, ,546,,stimuli/11010011.jpg,,,190921,,feedback_trial,169,image-keyboard-response,,
204,Experiment 3,False,0,,False,False,111,1,,1,False,False,,False,False,111,,,,,,,0.0-145.0,,,2,625,[1],stimuli/1111111.jpg,,,191549,,prediction_trial,170,image-keyboard-response,,
204,Experiment 3,,,,,,,,,1,,,,,,,,,,,,,0.0-146.0,,, ,564,,stimuli/11111111.jpg,,,192115,,feedback_trial,171,image-keyboard-response,,
204,Experiment 3,True,1,,False,True,100,0,,0,False,False,,False,False,111,,,,,,,0.0-147.0,,,0,642,[0],stimuli/0100111.jpg,,,192759,,prediction_trial,172,image-keyboard-response,,
204,Experiment 3,,,,,,,,,0,,,,,,,,,,,,,0.0-148.0,,, ,646,,stimuli/01001110.jpg,,,193422,,feedback_trial,173,image-keyboard-response,,
204,Experiment 3,True,1,,False,False,101,0,,0,False,False,,True,True,010,,,,,,,0.0-149.0,,,0,692,[0],stimuli/0101010.jpg,,,194117,,prediction_trial,174,image-keyboard-response,,
204,Experiment 3,,,,,,,,,0,,,,,,,,,,,,,0.0-150.0,,, ,589,,stimuli/01010100.jpg,,,194709,,feedback_trial,175,image-keyboard-response,,
204,Experiment 3,True,1,,False,False,110,0,,0,False,False,,True,True,010,,,,,,,0.0-151.0,,,0,740,[0],stimuli/0110010.jpg,,,195452,,prediction_trial,176,image-keyboard-response,,
204,Experiment 3,,,,,,,,,0,,,,,,,,,,,,,0.0-152.0,,, ,552,,stimuli/01100100.jpg,,,196007,,feedback_trial,177,image-keyboard-response,,
204,Experiment 3,False,0,,False,True,100,0,,0,False,False,,False,False,101,,,,,,,0.0-153.0,,,2,787,[0],stimuli/0100101.jpg,,,196811,,prediction_trial,178,image-keyboard-response,,
204,Experiment 3,,,,,,,,,0,,,,,,,,,,,,,0.0-154.0,,, ,585,,stimuli/01001010.jpg,,,197399,,feedback_trial,179,image-keyboard-response,,
204,Experiment 3,True,1,,True,True,000,1,,1,True,True,,True,True,100,,,,,,,0.0-155.0,,,1,644,[1],stimuli/1000100.jpg,,,198046,,prediction_trial,180,image-keyboard-response,,
204,Experiment 3,,,,,,,,,1,,,,,,,,,,,,,0.0-156.0,,, ,506,,stimuli/10001001.jpg,,,198555,,feedback_trial,181,image-keyboard-response,,
204,Experiment 3,False,0,,False,False,110,1,,1,False,False,,False,False,011,,,,,,,0.0-157.0,,,2,848,[1],stimuli/1110011.jpg,,,199406,,prediction_trial,182,image-keyboard-response,,
204,Experiment 3,,,,,,,,,1,,,,,,,,,,,,,0.0-158.0,,, ,496,,stimuli/11100111.jpg,,,199919,,feedback_trial,183,image-keyboard-response,,
204,Experiment 3,True,1,,False,False,111,1,,1,False,False,,True,True,001,,,,,,,0.0-159.0,,,1,451,[1],stimuli/1111001.jpg,,,200373,,prediction_trial,184,image-keyboard-response,,
204,Experiment 3,,,,,,,,,1,,,,,,,,,,,,,0.0-160.0,,, ,502,,stimuli/11110011.jpg,,,200877,,feedback_trial,185,image-keyboard-response,,
204,Experiment 3,True,1,,True,True,110,2,,2,True,True,,True,True,010,,,,,,,0.0-161.0,,,2,571,[2],stimuli/2110010.jpg,,,201451,,prediction_trial,186,image-keyboard-response,,
204,Experiment 3,,,,,,,,,2,,,,,,,,,,,,,0.0-162.0,,, ,692,,stimuli/21100102.jpg,,,202146,,feedback_trial,187,image-keyboard-response,,
204,Experiment 3,True,1,,True,True,010,0,,0,False,False,,False,False,110,,,,,,,0.0-163.0,,,0,2838,[0],stimuli/0010110.jpg,,,205000,,prediction_trial,188,image-keyboard-response,,
204,Experiment 3,,,,,,,,,0,,,,,,,,,,,,,0.0-164.0,,, ,719,,stimuli/00101100.jpg,,,205721,,feedback_trial,189,image-keyboard-response,,
204,Experiment 3,True,1,,False,True,001,2,,2,False,True,,True,True,000,,,,,,,0.0-165.0,,,2,597,[2],stimuli/2001000.jpg,,,206321,,prediction_trial,190,image-keyboard-response,,
204,Experiment 3,,,,,,,,,2,,,,,,,,,,,,,0.0-166.0,,, ,662,,stimuli/20010002.jpg,,,206986,,feedback_trial,191,image-keyboard-response,,
204,Experiment 3,True,1,,False,False,011,2,,2,False,False,,True,True,010,,,,,,,0.0-167.0,,,2,831,[2],stimuli/2011010.jpg,,,207819,,prediction_trial,192,image-keyboard-response,,
204,Experiment 3,,,,,,,,,2,,,,,,,,,,,,,0.0-168.0,,, ,648,,stimuli/20110102.jpg,,,208485,,feedback_trial,193,image-keyboard-response,,
204,Experiment 3,True,1,,False,False,111,1,,1,False,False,,False,True,010,,,,,,,0.0-169.0,,,1,1320,[1],stimuli/1111010.jpg,,,209808,,prediction_trial,194,image-keyboard-response,,
204,Experiment 3,,,,,,,,,1,,,,,,,,,,,,,0.0-170.0,,, ,650,,stimuli/11110101.jpg,,,210461,,feedback_trial,195,image-keyboard-response,,
204,Experiment 3,True,1,,True,True,010,0,,0,True,True,,True,True,001,,,,,,,0.0-171.0,,,0,644,[0],stimuli/0010001.jpg,,,211108,,prediction_trial,196,image-keyboard-response,,
204,Experiment 3,,,,,,,,,0,,,,,,,,,,,,,0.0-172.0,,, ,1164,,stimuli/00100010.jpg,,,212274,,feedback_trial,197,image-keyboard-response,,
204,Experiment 3,True,1,,False,True,010,1,,1,False,False,,False,False,110,,,,,,,0.0-173.0,,,1,1058,[1],stimuli/1010110.jpg,,,213344,,prediction_trial,198,image-keyboard-response,,
204,Experiment 3,,,,,,,,,1,,,,,,,,,,,,,0.0-174.0,,, ,631,,stimuli/10101101.jpg,,,213978,,feedback_trial,199,image-keyboard-response,,
204,Experiment 3,True,1,,True,True,010,2,,2,False,True,,False,True,001,,,,,,,0.0-175.0,,,2,624,[2],stimuli/2010001.jpg,,,214605,,prediction_trial,200,image-keyboard-response,,
204,Experiment 3,,,,,,,,,2,,,,,,,,,,,,,0.0-176.0,,, ,470,,stimuli/20100012.jpg,,,215077,,feedback_trial,201,image-keyboard-response,,
204,Experiment 3,True,1,,False,False,101,0,,0,False,False,,True,True,001,,,,,,,0.0-177.0,,,0,544,[0],stimuli/0101001.jpg,,,215624,,prediction_trial,202,image-keyboard-response,,
204,Experiment 3,,,,,,,,,0,,,,,,,,,,,,,0.0-178.0,,, ,487,,stimuli/01010010.jpg,,,216130,,feedback_trial,203,image-keyboard-response,,
204,Experiment 3,True,1,,True,True,000,2,,2,True,True,,True,True,110,,,,,,,0.0-179.0,,,2,559,[2],stimuli/2000110.jpg,,,216692,,prediction_trial,204,image-keyboard-response,,
204,Experiment 3,,,,,,,,,2,,,,,,,,,,,,,0.0-180.0,,, ,661,,stimuli/20001102.jpg,,,217355,,feedback_trial,205,image-keyboard-response,,
204,Experiment 3,True,1,,False,True,010,1,,1,False,True,,True,True,001,,,,,,,0.0-181.0,,,1,657,[1],stimuli/1010001.jpg,,,218016,,prediction_trial,206,image-keyboard-response,,
204,Experiment 3,,,,,,,,,1,,,,,,,,,,,,,0.0-182.0,,, ,476,,stimuli/10100011.jpg,,,218494,,feedback_trial,207,image-keyboard-response,,
204,Experiment 3,True,1,,False,False,011,2,,2,False,False,,True,True,100,,,,,,,0.0-183.0,,,2,498,[2],stimuli/2011100.jpg,,,219007,,prediction_trial,208,image-keyboard-response,,
204,Experiment 3,,,,,,,,,2,,,,,,,,,,,,,0.0-184.0,,, ,524,,stimuli/20111002.jpg,,,219534,,feedback_trial,209,image-keyboard-response,,
204,Experiment 3,True,1,,True,True,000,0,,0,True,True,,True,True,000,,,,,,,0.0-185.0,,,0,561,[0],stimuli/0000000.jpg,,,220098,,prediction_trial,210,image-keyboard-response,,
204,Experiment 3,,,,,,,,,0,,,,,,,,,,,,,0.0-186.0,,, ,489,,stimuli/00000000.jpg,,,220590,,feedback_trial,211,image-keyboard-response,,
204,Experiment 3,False,0,,False,False,101,0,,0,False,False,,False,False,110,,,,,,,0.0-187.0,,,1,784,[0],stimuli/0101110.jpg,,,221376,,prediction_trial,212,image-keyboard-response,,
204,Experiment 3,,,,,,,,,0,,,,,,,,,,,,,0.0-188.0,,, ,417,,stimuli/01011100.jpg,,,221811,,feedback_trial,213,image-keyboard-response,,
204,Experiment 3,False,0,,False,False,110,1,,1,False,False,,False,False,110,,,,,,,0.0-189.0,,,0,565,[1],stimuli/1110110.jpg,,,222379,,prediction_trial,214,image-keyboard-response,,
204,Experiment 3,,,,,,,,,1,,,,,,,,,,,,,0.0-190.0,,, ,478,,stimuli/11101101.jpg,,,222860,,feedback_trial,215,image-keyboard-response,,
204,Experiment 3,False,0,,True,True,001,0,,0,False,False,,False,False,101,,,,,,,0.0-191.0,,,2,834,[0],stimuli/0001101.jpg,,,223696,,prediction_trial,216,image-keyboard-response,,
204,Experiment 3,,,,,,,,,0,,,,,,,,,,,,,0.0-192.0,,, ,526,,stimuli/00011010.jpg,,,224225,,feedback_trial,217,image-keyboard-response,,
204,Experiment 3,True,1,,False,False,101,2,,2,False,False,,True,True,000,,,,,,,0.0-193.0,,,2,638,[2],stimuli/2101000.jpg,,,224880,,prediction_trial,218,image-keyboard-response,,
204,Experiment 3,,,,,,,,,2,,,,,,,,,,,,,0.0-194.0,,, ,458,,stimuli/21010002.jpg,,,225342,,feedback_trial,219,image-keyboard-response,,
204,Experiment 3,False,0,,False,False,110,0,,0,False,False,,False,False,111,,,,,,,0.0-195.0,,,1,651,[0],stimuli/0110111.jpg,,,225996,,prediction_trial,220,image-keyboard-response,,
204,Experiment 3,,,,,,,,,0,,,,,,,,,,,,,0.0-196.0,,, ,547,,stimuli/01101110.jpg,,,226546,,feedback_trial,221,image-keyboard-response,,
204,Experiment 3,True,1,,True,True,100,2,,2,True,True,,True,True,100,,,,,,,0.0-197.0,,,2,532,[2],stimuli/2100100.jpg,,,227081,,prediction_trial,222,image-keyboard-response,,
204,Experiment 3,,,,,,,,,2,,,,,,,,,,,,,0.0-198.0,,, ,428,,stimuli/21001002.jpg,,,227526,,feedback_trial,223,image-keyboard-response,,
204,Experiment 3,True,1,,False,False,011,2,,2,False,False,,True,True,110,,,,,,,0.0-199.0,,,2,569,[2],stimuli/2011110.jpg,,,228097,,prediction_trial,224,image-keyboard-response,,
204,Experiment 3,,,,,,,,,2,,,,,,,,,,,,,0.0-200.0,,, ,493,,stimuli/20111102.jpg,,,228593,,feedback_trial,225,image-keyboard-response,,
204,Experiment 3,False,0,,False,False,011,2,,2,False,False,,False,False,101,,,,,,,0.0-201.0,,,0,534,[2],stimuli/2011101.jpg,,,229130,,prediction_trial,226,image-keyboard-response,,
204,Experiment 3,,,,,,,,,2,,,,,,,,,,,,,0.0-202.0,,, ,507,,stimuli/20111012.jpg,,,229639,,feedback_trial,227,image-keyboard-response,,
204,Experiment 3,False,0,,False,False,101,2,,2,False,False,,False,False,011,,,,,,,0.0-203.0,,,1,557,[2],stimuli/2101011.jpg,,,230213,,prediction_trial,228,image-keyboard-response,,
204,Experiment 3,,,,,,,,,2,,,,,,,,,,,,,0.0-204.0,,, ,537,,stimuli/21010112.jpg,,,230752,,feedback_trial,229,image-keyboard-response,,
204,Experiment 3,True,1,,False,False,011,1,,1,False,False,,True,True,001,,,,,,,0.0-205.0,,,1,513,[1],stimuli/1011001.jpg,,,231268,,prediction_trial,230,image-keyboard-response,,
204,Experiment 3,,,,,,,,,1,,,,,,,,,,,,,0.0-206.0,,, ,485,,stimuli/10110011.jpg,,,231756,,feedback_trial,231,image-keyboard-response,,
204,Experiment 3,True,1,,True,True,001,1,,1,True,True,,True,True,000,,,,,,,0.0-207.0,,,1,504,[1],stimuli/1001000.jpg,,,232262,,prediction_trial,232,image-keyboard-response,,
204,Experiment 3,,,,,,,,,1,,,,,,,,,,,,,0.0-208.0,,, ,449,,stimuli/10010001.jpg,,,232728,,feedback_trial,233,image-keyboard-response,,
204,Experiment 3,True,1,,False,False,111,1,,1,False,False,,True,True,000,,,,,,,0.0-209.0,,,1,520,[1],stimuli/1111000.jpg,,,233251,,prediction_trial,234,image-keyboard-response,,
204,Experiment 3,,,,,,,,,1,,,,,,,,,,,,,0.0-210.0,,, ,433,,stimuli/11110001.jpg,,,233687,,feedback_trial,235,image-keyboard-response,,
204,Experiment 3,True,1,,False,False,011,1,,1,False,False,,True,True,100,,,,,,,0.0-211.0,,,1,571,[1],stimuli/1011100.jpg,,,234261,,prediction_trial,236,image-keyboard-response,,
204,Experiment 3,,,,,,,,,1,,,,,,,,,,,,,0.0-212.0,,, ,660,,stimuli/10111001.jpg,,,234924,,feedback_trial,237,image-keyboard-response,,
204,Experiment 3,False,0,,True,True,011,0,,0,False,False,,False,False,101,,,,,,,0.0-213.0,,,2,635,[0],stimuli/0011101.jpg,,,235578,,prediction_trial,238,image-keyboard-response,,
204,Experiment 3,,,,,,,,,0,,,,,,,,,,,,,0.0-214.0,,, ,561,,stimuli/00111010.jpg,,,236141,,feedback_trial,239,image-keyboard-response,,
204,Experiment 3,False,0,,True,True,010,2,,2,False,False,,False,False,111,,,,,,,0.0-215.0,,,0,872,[2],stimuli/2010111.jpg,,,237016,,prediction_trial,240,image-keyboard-response,,
204,Experiment 3,,,,,,,,,2,,,,,,,,,,,,,0.0-216.0,,, ,880,,stimuli/20101112.jpg,,,237898,,feedback_trial,241,image-keyboard-response,,
204,Experiment 3,True,1,,False,False,111,0,,0,False,False,,True,True,010,,,,,,,0.0-217.0,,,0,600,[0],stimuli/0111010.jpg,,,238501,,prediction_trial,242,image-keyboard-response,,
204,Experiment 3,,,,,,,,,0,,,,,,,,,,,,,0.0-218.0,,, ,419,,stimuli/01110100.jpg,,,238923,,feedback_trial,243,image-keyboard-response,,
204,Experiment 3,True,1,,True,True,000,1,,1,True,True,,True,True,101,,,,,,,0.0-219.0,,,1,520,[1],stimuli/1000101.jpg,,,239447,,prediction_trial,244,image-keyboard-response,,
204,Experiment 3,,,,,,,,,1,,,,,,,,,,,,,0.0-220.0,,, ,397,,stimuli/10001011.jpg,,,239847,,feedback_trial,245,image-keyboard-response,,
204,Experiment 3,True,1,,False,False,111,2,,2,False,False,,False,True,001,,,,,,,0.0-221.0,,,2,622,[2],stimuli/2111001.jpg,,,240473,,prediction_trial,246,image-keyboard-response,,
204,Experiment 3,,,,,,,,,2,,,,,,,,,,,,,0.0-222.0,,, ,581,,stimuli/21110012.jpg,,,241057,,feedback_trial,247,image-keyboard-response,,
204,Experiment 3,True,1,,True,True,010,0,,0,False,True,,False,True,100,,,,,,,0.0-223.0,,,0,588,[0],stimuli/0010100.jpg,,,241648,,prediction_trial,248,image-keyboard-response,,
204,Experiment 3,,,,,,,,,0,,,,,,,,,,,,,0.0-224.0,,, ,509,,stimuli/00101000.jpg,,,242160,,feedback_trial,249,image-keyboard-response,,
204,Experiment 3,True,1,,False,False,111,1,,1,False,False,,False,False,110,,,,,,,0.0-225.0,,,1,654,[1],stimuli/1111110.jpg,,,242831,,prediction_trial,250,image-keyboard-response,,
204,Experiment 3,,,,,,,,,1,,,,,,,,,,,,,0.0-226.0,,, ,621,,stimuli/11111101.jpg,,,243455,,feedback_trial,251,image-keyboard-response,,
204,Experiment 3,True,1,,True,True,001,1,,1,True,True,,True,True,100,,,,,,,0.0-227.0,,,1,513,[1],stimuli/1001100.jpg,,,243971,,prediction_trial,252,image-keyboard-response,,
204,Experiment 3,,,,,,,,,1,,,,,,,,,,,,,0.0-228.0,,, ,435,,stimuli/10011001.jpg,,,244408,,feedback_trial,253,image-keyboard-response,,
204,Experiment 3,True,1,,False,False,110,0,,0,False,False,,True,True,001,,,,,,,0.0-229.0,,,0,523,[0],stimuli/0110001.jpg,,,244934,,prediction_trial,254,image-keyboard-response,,
204,Experiment 3,,,,,,,,,0,,,,,,,,,,,,,0.0-230.0,,, ,455,,stimuli/01100010.jpg,,,245406,,feedback_trial,255,image-keyboard-response,,
204,Experiment 3,True,1,,True,True,000,2,,2,False,True,,False,True,001,,,,,,,0.0-231.0,,,2,568,[2],stimuli/2000001.jpg,,,245977,,prediction_trial,256,image-keyboard-response,,
204,Experiment 3,,,,,,,,,2,,,,,,,,,,,,,0.0-232.0,,, ,518,,stimuli/20000012.jpg,,,246498,,feedback_trial,257,image-keyboard-response,,
204,Experiment 3,True,1,,False,False,110,1,,1,False,False,,True,True,101,,,,,,,0.0-233.0,,,1,522,[1],stimuli/1110101.jpg,,,247022,,prediction_trial,258,image-keyboard-response,,
204,Experiment 3,,,,,,,,,1,,,,,,,,,,,,,0.0-234.0,,, ,376,,stimuli/11101011.jpg,,,247401,,feedback_trial,259,image-keyboard-response,,
204,Experiment 3,True,1,,False,False,111,2,,2,False,False,,True,True,100,,,,,,,0.0-235.0,,,2,517,[2],stimuli/2111100.jpg,,,247922,,prediction_trial,260,image-keyboard-response,,
204,Experiment 3,,,,,,,,,2,,,,,,,,,,,,,0.0-236.0,,, ,514,,stimuli/21111002.jpg,,,248439,,feedback_trial,261,image-keyboard-response,,
204,Experiment 3,True,1,,False,False,111,0,,0,False,False,,True,True,001,,,,,,,0.0-237.0,,,0,518,[0],stimuli/0111001.jpg,,,248960,,prediction_trial,262,image-keyboard-response,,
204,Experiment 3,,,,,,,,,0,,,,,,,,,,,,,0.0-238.0,,, ,412,,stimuli/01110010.jpg,,,249376,,feedback_trial,263,image-keyboard-response,,
204,Experiment 3,True,1,,False,False,011,1,,1,False,False,,True,True,000,,,,,,,0.0-239.0,,,1,440,[1],stimuli/1011000.jpg,,,249819,,prediction_trial,264,image-keyboard-response,,
204,Experiment 3,,,,,,,,,1,,,,,,,,,,,,,0.0-240.0,,, ,858,,stimuli/10110001.jpg,,,250679,,feedback_trial,265,image-keyboard-response,,
204,Experiment 3,True,1,,True,True,001,0,,0,True,True,,True,True,001,,,,,,,0.0-241.0,,,0,577,[0],stimuli/0001001.jpg,,,251259,,prediction_trial,266,image-keyboard-response,,
204,Experiment 3,,,,,,,,,0,,,,,,,,,,,,,0.0-242.0,,, ,337,,stimuli/00010010.jpg,,,251614,,feedback_trial,267,image-keyboard-response,,
204,Experiment 3,True,1,,True,True,101,1,,1,True,True,,True,True,000,,,,,,,0.0-243.0,,,1,496,[1],stimuli/1101000.jpg,,,252113,,prediction_trial,268,image-keyboard-response,,
204,Experiment 3,,,,,,,,,1,,,,,,,,,,,,,0.0-244.0,,, ,480,,stimuli/11010001.jpg,,,252595,,feedback_trial,269,image-keyboard-response,,
204,Experiment 3,True,1,,True,True,000,1,,1,True,True,,True,True,001,,,,,,,0.0-245.0,,,1,503,[1],stimuli/1000001.jpg,,,253101,,prediction_trial,270,image-keyboard-response,,
204,Experiment 3,,,,,,,,,1,,,,,,,,,,,,,0.0-246.0,,, ,509,,stimuli/10000011.jpg,,,253613,,feedback_trial,271,image-keyboard-response,,
204,Experiment 3,True,1,,False,True,100,0,,0,False,True,,True,True,011,,,,,,,0.0-247.0,,,0,519,[0],stimuli/0100011.jpg,,,254149,,prediction_trial,272,image-keyboard-response,,
204,Experiment 3,,,,,,,,,0,,,,,,,,,,,,,0.0-248.0,,, ,387,,stimuli/01000110.jpg,,,254538,,feedback_trial,273,image-keyboard-response,,
204,Experiment 3,False,0,,False,True,010,1,,1,False,False,,False,False,011,,,,,,,0.0-249.0,,,2,608,[1],stimuli/1010011.jpg,,,255149,,prediction_trial,274,image-keyboard-response,,
204,Experiment 3,,,,,,,,,1,,,,,,,,,,,,,0.0-250.0,,, ,592,,stimuli/10100111.jpg,,,255743,,feedback_trial,275,image-keyboard-response,,
204,Experiment 3,True,1,,False,False,011,2,,2,False,False,,True,True,000,,,,,,,0.0-251.0,,,2,577,[2],stimuli/2011000.jpg,,,256323,,prediction_trial,276,image-keyboard-response,,
204,Experiment 3,,,,,,,,,2,,,,,,,,,,,,,0.0-252.0,,, ,473,,stimuli/20110002.jpg,,,256812,,feedback_trial,277,image-keyboard-response,,
204,Experiment 3,True,1,,True,True,100,2,,2,True,True,,True,True,110,,,,,,,0.0-253.0,,,2,607,[2],stimuli/2100110.jpg,,,257421,,prediction_trial,278,image-keyboard-response,,
204,Experiment 3,,,,,,,,,2,,,,,,,,,,,,,0.0-254.0,,, ,416,,stimuli/21001102.jpg,,,257840,,feedback_trial,279,image-keyboard-response,,
204,Experiment 3,True,1,,True,True,000,0,,0,False,True,,False,True,100,,,,,,,0.0-255.0,,,0,529,[0],stimuli/0000100.jpg,,,258372,,prediction_trial,280,image-keyboard-response,,
204,Experiment 3,,,,,,,,,0,,,,,,,,,,,,,0.0-256.0,,, ,577,,stimuli/00001000.jpg,,,258951,,feedback_trial,281,image-keyboard-response,,
204,Experiment 3,True,1,,True,True,001,1,,1,True,True,,True,True,101,,,,,,,0.0-257.0,,,1,502,[1],stimuli/1001101.jpg,,,259470,,prediction_trial,282,image-keyboard-response,,
204,Experiment 3,,,,,,,,,1,,,,,,,,,,,,,0.0-258.0,,, ,476,,stimuli/10011011.jpg,,,259948,,feedback_trial,283,image-keyboard-response,,
204,Experiment 3,True,1,,True,True,000,2,,2,False,False,,False,False,101,,,,,,,0.0-259.0,,,2,635,[2],stimuli/2000101.jpg,,,260586,,prediction_trial,284,image-keyboard-response,,
204,Experiment 3,,,,,,,,,2,,,,,,,,,,,,,0.0-260.0,,, ,575,,stimuli/20001012.jpg,,,261164,,feedback_trial,285,image-keyboard-response,,
204,Experiment 3,True,1,,True,True,001,0,,0,True,True,,True,True,010,,,,,,,0.0-261.0,,,0,552,[0],stimuli/0001010.jpg,,,261733,,prediction_trial,286,image-keyboard-response,,
204,Experiment 3,,,,,,,,,0,,,,,,,,,,,,,0.0-262.0,,, ,514,,stimuli/00010100.jpg,,,262250,,feedback_trial,287,image-keyboard-response,,
204,Experiment 3,True,1,,False,True,100,0,,0,False,True,,True,True,010,,,,,,,0.0-263.0,,,0,709,[0],stimuli/0100010.jpg,,,262962,,prediction_trial,288,image-keyboard-response,,
204,Experiment 3,,,,,,,,,0,,,,,,,,,,,,,0.0-264.0,,, ,460,,stimuli/01000100.jpg,,,263425,,feedback_trial,289,image-keyboard-response,,
204,Experiment 3,True,1,,True,True,000,1,,1,False,False,,False,False,110,,,,,,,0.0-265.0,,,1,762,[1],stimuli/1000110.jpg,,,264190,,prediction_trial,290,image-keyboard-response,,
204,Experiment 3,,,,,,,,,1,,,,,,,,,,,,,0.0-266.0,,, ,401,,stimuli/10001101.jpg,,,264607,,feedback_trial,291,image-keyboard-response,,
204,Experiment 3,False,0,,False,False,111,1,,1,False,False,,False,False,011,,,,,,,0.0-267.0,,,2,1298,[1],stimuli/1111011.jpg,,,265910,,prediction_trial,292,image-keyboard-response,,
204,Experiment 3,,,,,,,,,1,,,,,,,,,,,,,0.0-268.0,,, ,573,,stimuli/11110111.jpg,,,266485,,feedback_trial,293,image-keyboard-response,,
204,Experiment 3,True,1,,True,True,000,1,,1,False,False,,False,False,111,,,,,,,0.0-269.0,,,1,711,[1],stimuli/1000111.jpg,,,267198,,prediction_trial,294,image-keyboard-response,,
204,Experiment 3,,,,,,,,,1,,,,,,,,,,,,,0.0-270.0,,, ,544,,stimuli/10001111.jpg,,,267745,,feedback_trial,295,image-keyboard-response,,
204,Experiment 3,False,0,,False,True,010,1,,1,False,False,,False,False,111,,,,,,,0.0-271.0,,,2,1367,[1],stimuli/1010111.jpg,,,269129,,prediction_trial,296,image-keyboard-response,,
204,Experiment 3,,,,,,,,,1,,,,,,,,,,,,,0.0-272.0,,, ,941,,stimuli/10101111.jpg,,,270072,,feedback_trial,297,image-keyboard-response,,
204,Experiment 3,False,0,,False,False,111,0,,0,False,False,,False,False,110,,,,,,,0.0-273.0,,,1,1635,[0],stimuli/0111110.jpg,,,271709,,prediction_trial,298,image-keyboard-response,,
204,Experiment 3,,,,,,,,,0,,,,,,,,,,,,,0.0-274.0,,, ,814,,stimuli/01111100.jpg,,,272526,,feedback_trial,299,image-keyboard-response,,
204,Experiment 3,True,1,,False,False,110,0,,0,False,False,,True,True,011,,,,,,,0.0-275.0,,,0,656,[0],stimuli/0110011.jpg,,,273184,,prediction_trial,300,image-keyboard-response,,
204,Experiment 3,,,,,,,,,0,,,,,,,,,,,,,0.0-276.0,,, ,508,,stimuli/01100110.jpg,,,273709,,feedback_trial,301,image-keyboard-response,,
204,Experiment 3,False,0,,True,True,010,0,,0,False,False,,False,False,111,,,,,,,0.0-277.0,,,1,1034,[0],stimuli/0010111.jpg,,,274745,,prediction_trial,302,image-keyboard-response,,
204,Experiment 3,,,,,,,,,0,,,,,,,,,,,,,0.0-278.0,,, ,580,,stimuli/00101110.jpg,,,275328,,feedback_trial,303,image-keyboard-response,,
204,Experiment 3,True,1,,False,False,111,0,,0,False,False,,True,True,011,,,,,,,0.0-279.0,,,0,553,[0],stimuli/0111011.jpg,,,275883,,prediction_trial,304,image-keyboard-response,,
204,Experiment 3,,,,,,,,,0,,,,,,,,,,,,,0.0-280.0,,, ,513,,stimuli/01110110.jpg,,,276399,,feedback_trial,305,image-keyboard-response,,
204,Experiment 3,True,1,,True,True,000,1,,1,True,True,,True,True,000,,,,,,,0.0-281.0,,,1,632,[1],stimuli/1000000.jpg,,,277047,,prediction_trial,306,image-keyboard-response,,
204,Experiment 3,,,,,,,,,1,,,,,,,,,,,,,0.0-282.0,,, ,363,,stimuli/10000001.jpg,,,277413,,feedback_trial,307,image-keyboard-response,,
204,Experiment 3,True,1,,True,True,100,2,,2,False,True,,False,True,001,,,,,,,0.0-283.0,,,2,753,[2],stimuli/2100001.jpg,,,278168,,prediction_trial,308,image-keyboard-response,,
204,Experiment 3,,,,,,,,,2,,,,,,,,,,,,,0.0-284.0,,, ,410,,stimuli/21000012.jpg,,,278581,,feedback_trial,309,image-keyboard-response,,
204,Experiment 3,True,1,,False,True,100,0,,0,False,True,,True,True,001,,,,,,,0.0-285.0,,,0,505,[0],stimuli/0100001.jpg,,,279088,,prediction_trial,310,image-keyboard-response,,
204,Experiment 3,,,,,,,,,0,,,,,,,,,,,,,0.0-286.0,,, ,415,,stimuli/01000010.jpg,,,279518,,feedback_trial,311,image-keyboard-response,,
204,Experiment 3,True,1,,True,True,000,1,,1,False,True,,False,True,010,,,,,,,0.0-287.0,,,1,565,[1],stimuli/1000010.jpg,,,280085,,prediction_trial,312,image-keyboard-response,,
204,Experiment 3,,,,,,,,,1,,,,,,,,,,,,,0.0-288.0,,, ,564,,stimuli/10000101.jpg,,,280652,,feedback_trial,313,image-keyboard-response,,
204,Experiment 3,True,1,,True,True,110,2,,2,False,False,,False,False,101,,,,,,,0.0-289.0,,,2,671,[2],stimuli/2110101.jpg,,,281326,,prediction_trial,314,image-keyboard-response,,
204,Experiment 3,,,,,,,,,2,,,,,,,,,,,,,0.0-290.0,,, ,600,,stimuli/21101012.jpg,,,281929,,feedback_trial,315,image-keyboard-response,,
204,Experiment 3,False,0,,False,False,111,2,,2,False,False,,False,False,101,,,,,,,0.0-291.0,,,0,1280,[2],stimuli/2111101.jpg,,,283226,,prediction_trial,316,image-keyboard-response,,
204,Experiment 3,,,,,,,,,2,,,,,,,,,,,,,0.0-292.0,,, ,723,,stimuli/21111012.jpg,,,283951,,feedback_trial,317,image-keyboard-response,,
204,Experiment 3,,,40,,,,,0.6055555555555556,,,,,,,,Non-Hispanic,,,,,Male,0.0-293.0,0.7569444444444444,White,"{'age': '40', 'race': 'White', 'gender': 'Male', 'feedback': '', 'ethnicity': 'Non-Hispanic', 'other_race': '', 'other_gender': ''}",26580,,,,,310537,,exit_survey,318,survey-html-form,,
204,Experiment 3,,,,,,,,,,,,,,,,,,,,,,0.0-294.0,,,0,1791,,"<div style=""text-align:left; padding:10px; max-width:900px;""><center><p><b>Study Debriefing</b></p></center><p>Judgement and decision making are important aspects of public and private life. Using surveys like the one you just completed, we are examining the factors that go into making social decisions.</p><p><b>How is this being tested? </b> We have asked you to respond to stories or videos that differ on several important factors. By isolating different variables that are involved in social thought, we can better understand how we arrive at complex decision-making. For example, some actions are seen as more worthy of blame if they are performed intentionally. Harming someone on purpose is generally worse than harming someone by accident, or even harming someone in a way that is foreseen but not intended.</p><p><b>Main questions and hypotheses: </b>A fundamental goal of our research is to understand the cognitive and emotional factors that influence social judgment and decision-making. We are studying these factors by presenting people with hypothetical questions that vary in specific ways and seeing which factors make a difference. Some people filled out the same survey that you just filled out. Others got slightly different surveys.</p><p><b>Why is this important to study? </b>By comparing answers on these important factors, we learn about what factors affect social judgment. This has crucial implications for many public domains, including the legal system.</p><p><b>How to learn more: </b>If you are interested in learning more, you may want to consult the following articles:<p><p style=""margin-left:10%; margin-right:10%;"">Phillips, J., & Cushman, F. (2017). Morality constrains the default representation of what is possible. Proceedings of the National Academy of Sciences of the United States of America, 114(18), 46494654. https://doi.org/10.1073/pnas.1619717114<p style=""margin-left:10%; margin-right:10%;"">Phillips, J., Morris, A., & Cushman, F. (2019). How we know what not to think. Trends in Cognitive Sciences, 23(12), 10261040. https://doi.org/10.1016/j.tics.2019.09.007<p style=""margin-left:10%; margin-right:10%;"">Phillips, J., Buckwalter, W., Cushman, F., Friedman, O., Martin, A., Turri, J., Santos, L., & Knobe, J. (2020). Knowledge before Belief. Behavioral and Brain Sciences, 1-37. doi:10.1017/S0140525X20000618</p><p><b>How to contact the researcher:</b> If you have questions or concerns about your participation or payment, or want to request a summary of research findings, please contact the Primary Investigator: Dr. Jonathan Phillips, at Jonathan.S.Phillips@dartmouth.edu.Whom to contact about your rights in this research: If you have questions, concerns, complaints, or suggestions about the present research, you may call the Office of the Committee for the Protection of Human Subjects at Dartmouth College (603) 646-6482 during normal business hours.</p><p><b>Thank you for your participation!<b/></p>",,,312335,,,319,html-button-response,,
192,Experiment 3,,,,,,,,,,,,,,,,,[],[],[],,,0.0-0.0,,,,,,,,True,788672,False,,0,preload,,
192,Experiment 3,,,,,,,,,,,,,,,,,,,,,,0.0-1.0,,,,,,,,True,798337,,,1,fullscreen,,
192,Experiment 3,,,,,,,,,,,,,,,,,,,,,,0.0-2.0,,,0,29988,,"<p><b>Consent Form</b></p> <div style=""text-align:left;background-color:lightgrey; padding:20px; max-width:900px;""><p>Please consider this information carefully before deciding whether to participate in this research.</p> <p>The purpose of this research is to examine which factors influence social judgment and decision-making. You will be asked to make judgements about individuals and actions in social scenarios. We are simply interested in your judgement. The study will take less than 1 hour to complete, and you will receive less than $20 on Prolific. Your compensation and time commitment are specified in the study description. There are no anticipated risks associated with participating in this study. The effects of participating should be comparable to those you would ordinarily experience from viewing a computer monitor and using a mouse or keyboard for a similar amount of time. At the end of the study, we will provide an explanation of the questions that motivate this line of research and will describe the potential implications. </p><p> Your participation in this study is completely voluntary and you may refuse to participate or you may choose to withdraw at any time without penalty or loss of benefits to you which are otherwise entitled. Your participation in this study will remain confidential. No personally identifiable information will be associated with your data. Also, all analyses of the data will be averaged across all the participants, so your individual responses will never be specifically analyzed. </p><p> If you have questions or concerns about your participation or payment, or want to request a summary of research findings, please contact Dr. Jonathan Phillips at Jonathan.S.Phillips@dartmouth.edu. </p><p> Please save a copy of this form for your records. </p><p><b>Agreement: </b>The nature and purpose of this research have been sufficiently explained and I agree to participate in this study. I understand that I am free to withdraw at any time without incurring any penalty. Please consent by clicking the button below to continue. Otherwise, please exit the study at any time. </p>",,,828327,,,2,html-button-response,,
192,Experiment 3,,,,,,,,,,,,,,,,,,,,,,0.0-3.0-0.0,,,,99631,,,,,927962,,intro,3,instructions,"[{'page_index': 0, 'viewing_time': 2777}, {'page_index': 1, 'viewing_time': 7405}, {'page_index': 2, 'viewing_time': 3505}, {'page_index': 3, 'viewing_time': 3912}, {'page_index': 4, 'viewing_time': 9734}, {'page_index': 5, 'viewing_time': 11082}, {'page_index': 6, 'viewing_time': 4624}, {'page_index': 7, 'viewing_time': 36465}, {'page_index': 8, 'viewing_time': 7776}, {'page_index': 9, 'viewing_time': 10331}, {'page_index': 10, 'viewing_time': 2020}]",
192,Experiment 3,True,,,,,,,,2,,,,,,,,,,,,,0.0-3.0-1.0,,,2,4438,,stimuli/2101001.jpg,"{'ball_pos': 2, 'filepath': 'stimuli/2101001.jpg', 'ego_can_infer': True, 'ego_occluders': '001', 'alter_can_infer': False, 'alter_occluders': '101', 'ego_ball_visible': False, 'search_locations': [2], 'alter_ball_visible': False, 'collective_can_infer': False, 'collective_ball_visible': False}",,932417,,prediction_practice,4,image-keyboard-response,,
192,Experiment 3,,,,,,,,,2,,,,,,,,,,,,,0.0-3.0-2.0,,, ,1456,,stimuli/21010012.jpg,,,933897,,practrice_feedback,5,image-keyboard-response,,
192,Experiment 3,False,,,,,,,,1,,,,,,,,,,,,,0.0-3.0-3.0,,,2,2760,,stimuli/1101011.jpg,"{'ball_pos': 1, 'filepath': 'stimuli/1101011.jpg', 'ego_can_infer': False, 'ego_occluders': '011', 'alter_can_infer': True, 'alter_occluders': '101', 'ego_ball_visible': False, 'search_locations': [1], 'alter_ball_visible': True, 'collective_can_infer': False, 'collective_ball_visible': False}",,936673,,prediction_practice,6,image-keyboard-response,,
192,Experiment 3,,,,,,,,,1,,,,,,,,,,,,,0.0-3.0-4.0,,, ,1407,,stimuli/11010111.jpg,,,938097,,practrice_feedback,7,image-keyboard-response,,
192,Experiment 3,True,,,,,,,,0,,,,,,,,,,,,,0.0-3.0-5.0,,,0,1776,,stimuli/0110001.jpg,"{'ball_pos': 0, 'filepath': 'stimuli/0110001.jpg', 'ego_can_infer': True, 'ego_occluders': '001', 'alter_can_infer': False, 'alter_occluders': '110', 'ego_ball_visible': True, 'search_locations': [0], 'alter_ball_visible': False, 'collective_can_infer': False, 'collective_ball_visible': False}",,939897,,prediction_practice,8,image-keyboard-response,,
192,Experiment 3,,,,,,,,,0,,,,,,,,,,,,,0.0-3.0-6.0,,, ,572,,stimuli/01100010.jpg,,,940489,,practrice_feedback,9,image-keyboard-response,,
192,Experiment 3,True,,,,,,,,0,,,,,,,,,,,,,0.0-3.0-7.0,,,0,1735,,stimuli/0101010.jpg,"{'ball_pos': 0, 'filepath': 'stimuli/0101010.jpg', 'ego_can_infer': True, 'ego_occluders': '010', 'alter_can_infer': False, 'alter_occluders': '101', 'ego_ball_visible': True, 'search_locations': [0], 'alter_ball_visible': False, 'collective_can_infer': False, 'collective_ball_visible': False}",,942240,,prediction_practice,10,image-keyboard-response,,
192,Experiment 3,,,,,,,,,0,,,,,,,,,,,,,0.0-3.0-8.0,,, ,341,,stimuli/01010100.jpg,,,942601,,practrice_feedback,11,image-keyboard-response,,
192,Experiment 3,True,,,,,,,,2,,,,,,,,,,,,,0.0-3.0-9.0,,,2,3609,,stimuli/2111001.jpg,"{'ball_pos': 2, 'filepath': 'stimuli/2111001.jpg', 'ego_can_infer': True, 'ego_occluders': '001', 'alter_can_infer': False, 'alter_occluders': '111', 'ego_ball_visible': False, 'search_locations': [2], 'alter_ball_visible': False, 'collective_can_infer': False, 'collective_ball_visible': False}",,946233,,prediction_practice,12,image-keyboard-response,,
192,Experiment 3,,,,,,,,,2,,,,,,,,,,,,,0.0-3.0-10.0,,, ,520,,stimuli/21110012.jpg,,,946769,,practrice_feedback,13,image-keyboard-response,,
192,Experiment 3,True,,,,,,,,0,,,,,,,,,,,,,0.0-3.0-11.0,,,0,2604,,stimuli/0000010.jpg,"{'ball_pos': 0, 'filepath': 'stimuli/0000010.jpg', 'ego_can_infer': True, 'ego_occluders': '010', 'alter_can_infer': True, 'alter_occluders': '000', 'ego_ball_visible': True, 'search_locations': [0], 'alter_ball_visible': True, 'collective_can_infer': True, 'collective_ball_visible': True}",,949393,,prediction_practice,14,image-keyboard-response,,
192,Experiment 3,,,,,,,,,0,,,,,,,,,,,,,0.0-3.0-12.0,,, ,516,,stimuli/00000100.jpg,,,949929,,practrice_feedback,15,image-keyboard-response,,
192,Experiment 3,False,,,,,,,,0,,,,,,,,,,,,,0.0-3.0-13.0,,,1,1679,,stimuli/0010001.jpg,"{'ball_pos': 0, 'filepath': 'stimuli/0010001.jpg', 'ego_can_infer': True, 'ego_occluders': '001', 'alter_can_infer': True, 'alter_occluders': '010', 'ego_ball_visible': True, 'search_locations': [0], 'alter_ball_visible': True, 'collective_can_infer': True, 'collective_ball_visible': True}",,951632,,prediction_practice,16,image-keyboard-response,,
192,Experiment 3,,,,,,,,,0,,,,,,,,,,,,,0.0-3.0-14.0,,, ,2388,,stimuli/00100010.jpg,,,954041,,practrice_feedback,17,image-keyboard-response,,
192,Experiment 3,False,,,,,,,,0,,,,,,,,,,,,,0.0-3.0-15.0,,,1,2316,,stimuli/0011101.jpg,"{'ball_pos': 0, 'filepath': 'stimuli/0011101.jpg', 'ego_can_infer': False, 'ego_occluders': '101', 'alter_can_infer': True, 'alter_occluders': '011', 'ego_ball_visible': False, 'search_locations': [0], 'alter_ball_visible': True, 'collective_can_infer': False, 'collective_ball_visible': False}",,956377,,prediction_practice,18,image-keyboard-response,,
192,Experiment 3,,,,,,,,,0,,,,,,,,,,,,,0.0-3.0-16.0,,, ,608,,stimuli/00111010.jpg,,,957000,,practrice_feedback,19,image-keyboard-response,,
192,Experiment 3,True,,,,,,,,2,,,,,,,,,,,,,0.0-3.0-17.0,,,2,3872,,stimuli/2110001.jpg,"{'ball_pos': 2, 'filepath': 'stimuli/2110001.jpg', 'ego_can_infer': True, 'ego_occluders': '001', 'alter_can_infer': True, 'alter_occluders': '110', 'ego_ball_visible': False, 'search_locations': [2], 'alter_ball_visible': True, 'collective_can_infer': True, 'collective_ball_visible': False}",,960889,,prediction_practice,20,image-keyboard-response,,
192,Experiment 3,,,,,,,,,2,,,,,,,,,,,,,0.0-3.0-18.0,,, ,544,,stimuli/21100012.jpg,,,961448,,practrice_feedback,21,image-keyboard-response,,
192,Experiment 3,False,,,,,,,,2,,,,,,,,,,,,,0.0-3.0-19.0,,,1,2525,,stimuli/2111011.jpg,"{'ball_pos': 2, 'filepath': 'stimuli/2111011.jpg', 'ego_can_infer': False, 'ego_occluders': '011', 'alter_can_infer': False, 'alter_occluders': '111', 'ego_ball_visible': False, 'search_locations': [2], 'alter_ball_visible': False, 'collective_can_infer': False, 'collective_ball_visible': False}",,963993,,prediction_practice,22,image-keyboard-response,,
192,Experiment 3,,,,,,,,,2,,,,,,,,,,,,,0.0-3.0-20.0,,, ,1272,,stimuli/21110112.jpg,,,965281,,practrice_feedback,23,image-keyboard-response,,
192,Experiment 3,,,,,,,,,,,,,,,,,,,,,,0.0-3.0-21.0,,,0,11212,,"Now that you've had some practice, you'll be tested with a couple of easy trials. If you correctly predict the ball's location, you'll move on to complete the experiment!",,,976493,,,24,html-button-response,,
192,Experiment 3,True,,,,,,,,,,,arrowleft,,,,,,,,,,0.0-3.0-22.0-0.0,,,arrowleft,1929,,stimuli/0000011.jpg,,,978441,,comprehension_quiz,25,image-keyboard-response,,
192,Experiment 3,True,,,,,,,,,,, ,,,,,,,,,,0.0-3.0-22.0-1.0,,, ,952,,stimuli/00000110.jpg,,,979409,,comprehension_quiz,26,image-keyboard-response,,
192,Experiment 3,True,,,,,,,,,,,arrowdown,,,,,,,,,,0.0-3.0-22.0-2.0,,,arrowdown,2433,,stimuli/1010010.jpg,,,981857,,comprehension_quiz,27,image-keyboard-response,,
192,Experiment 3,True,,,,,,,,,,, ,,,,,,,,,,0.0-3.0-22.0-3.0,,, ,541,,stimuli/10100101.jpg,,,982417,,comprehension_quiz,28,image-keyboard-response,,
192,Experiment 3,,,,,,,,,,,,,,,,,,,,,,0.0-4.0,,,0,2887,,The experiment will now begin.,,,985305,,,29,html-button-response,,
192,Experiment 3,False,0,,False,True,100,0,,0,False,False,,False,False,101,,,,,,,0.0-5.0,,,2,3981,[0],stimuli/0100101.jpg,,,989304,,prediction_trial,30,image-keyboard-response,,
192,Experiment 3,,,,,,,,,0,,,,,,,,,,,,,0.0-6.0,,, ,1333,,stimuli/01001010.jpg,,,990657,,feedback_trial,31,image-keyboard-response,,
192,Experiment 3,True,1,,True,True,100,2,,2,True,True,,True,True,100,,,,,,,0.0-7.0,,,2,2364,[2],stimuli/2100100.jpg,,,993041,,prediction_trial,32,image-keyboard-response,,
192,Experiment 3,,,,,,,,,2,,,,,,,,,,,,,0.0-8.0,,, ,720,,stimuli/21001002.jpg,,,993777,,feedback_trial,33,image-keyboard-response,,
192,Experiment 3,True,1,,False,False,111,1,,1,False,False,,True,True,100,,,,,,,0.0-9.0,,,1,4449,[1],stimuli/1111100.jpg,,,998241,,prediction_trial,34,image-keyboard-response,,
192,Experiment 3,,,,,,,,,1,,,,,,,,,,,,,0.0-10.0,,, ,2535,,stimuli/11111001.jpg,,,1000794,,feedback_trial,35,image-keyboard-response,,
192,Experiment 3,True,1,,True,True,101,1,,1,False,True,,False,True,010,,,,,,,0.0-11.0,,,1,1821,[1],stimuli/1101010.jpg,,,1002633,,prediction_trial,36,image-keyboard-response,,
192,Experiment 3,,,,,,,,,1,,,,,,,,,,,,,0.0-12.0,,, ,488,,stimuli/11010101.jpg,,,1003136,,feedback_trial,37,image-keyboard-response,,
192,Experiment 3,True,1,,False,False,111,2,,2,False,False,,True,True,000,,,,,,,0.0-13.0,,,2,1655,[2],stimuli/2111000.jpg,,,1004809,,prediction_trial,38,image-keyboard-response,,
192,Experiment 3,,,,,,,,,2,,,,,,,,,,,,,0.0-14.0,,, ,487,,stimuli/21110002.jpg,,,1005313,,feedback_trial,39,image-keyboard-response,,
192,Experiment 3,True,1,,True,True,101,1,,1,True,True,,True,True,000,,,,,,,0.0-15.0,,,1,2910,[1],stimuli/1101000.jpg,,,1008241,,prediction_trial,40,image-keyboard-response,,
192,Experiment 3,,,,,,,,,1,,,,,,,,,,,,,0.0-16.0,,, ,447,,stimuli/11010001.jpg,,,1008706,,feedback_trial,41,image-keyboard-response,,
192,Experiment 3,True,1,,True,True,000,0,,0,False,False,,False,False,111,,,,,,,0.0-17.0,,,0,2758,[0],stimuli/0000111.jpg,,,1011481,,prediction_trial,42,image-keyboard-response,,
192,Experiment 3,,,,,,,,,0,,,,,,,,,,,,,0.0-18.0,,, ,470,,stimuli/00001110.jpg,,,1011969,,feedback_trial,43,image-keyboard-response,,
192,Experiment 3,True,1,,False,True,010,1,,1,False,True,,True,True,101,,,,,,,0.0-19.0,,,1,1734,[1],stimuli/1010101.jpg,,,1013721,,prediction_trial,44,image-keyboard-response,,
192,Experiment 3,,,,,,,,,1,,,,,,,,,,,,,0.0-20.0,,, ,438,,stimuli/10101011.jpg,,,1014177,,feedback_trial,45,image-keyboard-response,,
192,Experiment 3,False,0,,True,True,101,1,,1,False,False,,False,False,110,,,,,,,0.0-21.0,,,0,6047,[1],stimuli/1101110.jpg,,,1020241,,prediction_trial,46,image-keyboard-response,,
192,Experiment 3,,,,,,,,,1,,,,,,,,,,,,,0.0-22.0,,, ,1087,,stimuli/11011101.jpg,,,1021345,,feedback_trial,47,image-keyboard-response,,
192,Experiment 3,True,1,,False,False,101,0,,0,False,False,,True,True,010,,,,,,,0.0-23.0,,,0,1294,[0],stimuli/0101010.jpg,,,1022657,,prediction_trial,48,image-keyboard-response,,
192,Experiment 3,,,,,,,,,0,,,,,,,,,,,,,0.0-24.0,,, ,351,,stimuli/01010100.jpg,,,1023025,,feedback_trial,49,image-keyboard-response,,
192,Experiment 3,True,1,,False,False,101,2,,2,False,False,,True,True,000,,,,,,,0.0-25.0,,,2,1408,[2],stimuli/2101000.jpg,,,1024449,,prediction_trial,50,image-keyboard-response,,
192,Experiment 3,,,,,,,,,2,,,,,,,,,,,,,0.0-26.0,,, ,728,,stimuli/21010002.jpg,,,1025193,,feedback_trial,51,image-keyboard-response,,
192,Experiment 3,True,1,,True,True,110,2,,2,True,True,,True,True,110,,,,,,,0.0-27.0,,,2,2318,[2],stimuli/2110110.jpg,,,1027529,,prediction_trial,52,image-keyboard-response,,
192,Experiment 3,,,,,,,,,2,,,,,,,,,,,,,0.0-28.0,,, ,373,,stimuli/21101102.jpg,,,1027921,,feedback_trial,53,image-keyboard-response,,
192,Experiment 3,True,1,,False,False,111,2,,2,False,False,,False,False,101,,,,,,,0.0-29.0,,,2,2039,[2],stimuli/2111101.jpg,,,1029977,,prediction_trial,54,image-keyboard-response,,
192,Experiment 3,,,,,,,,,2,,,,,,,,,,,,,0.0-30.0,,, ,392,,stimuli/21111012.jpg,,,1030385,,feedback_trial,55,image-keyboard-response,,
192,Experiment 3,False,0,,True,True,000,0,,0,False,False,,False,False,101,,,,,,,0.0-31.0,,,2,5808,[0],stimuli/0000101.jpg,,,1036209,,prediction_trial,56,image-keyboard-response,,
192,Experiment 3,,,,,,,,,0,,,,,,,,,,,,,0.0-32.0,,, ,561,,stimuli/00001010.jpg,,,1036785,,feedback_trial,57,image-keyboard-response,,
192,Experiment 3,True,1,,True,True,100,1,,1,True,True,,True,True,101,,,,,,,0.0-33.0,,,1,1328,[1],stimuli/1100101.jpg,,,1038129,,prediction_trial,58,image-keyboard-response,,
192,Experiment 3,,,,,,,,,1,,,,,,,,,,,,,0.0-34.0,,, ,383,,stimuli/11001011.jpg,,,1038529,,feedback_trial,59,image-keyboard-response,,
192,Experiment 3,True,1,,True,True,001,0,,0,True,True,,True,True,000,,,,,,,0.0-35.0,,,0,1616,[0],stimuli/0001000.jpg,,,1040161,,prediction_trial,60,image-keyboard-response,,
192,Experiment 3,,,,,,,,,0,,,,,,,,,,,,,0.0-36.0,,, ,336,,stimuli/00010000.jpg,,,1040513,,feedback_trial,61,image-keyboard-response,,
192,Experiment 3,False,0,,True,True,001,1,,1,False,False,,False,False,011,,,,,,,0.0-37.0,,,2,5656,[1],stimuli/1001011.jpg,,,1046185,,prediction_trial,62,image-keyboard-response,,
192,Experiment 3,,,,,,,,,1,,,,,,,,,,,,,0.0-38.0,,, ,553,,stimuli/10010111.jpg,,,1046753,,feedback_trial,63,image-keyboard-response,,
192,Experiment 3,True,1,,False,True,010,1,,1,False,True,,False,True,010,,,,,,,0.0-39.0,,,1,2499,[1],stimuli/1010010.jpg,,,1049264,,prediction_trial,64,image-keyboard-response,,
192,Experiment 3,,,,,,,,,1,,,,,,,,,,,,,0.0-40.0,,, ,397,,stimuli/10100101.jpg,,,1049681,,feedback_trial,65,image-keyboard-response,,
192,Experiment 3,True,1,,False,False,101,2,,2,False,False,,True,True,100,,,,,,,0.0-41.0,,,2,1831,[2],stimuli/2101100.jpg,,,1051528,,prediction_trial,66,image-keyboard-response,,
192,Experiment 3,,,,,,,,,2,,,,,,,,,,,,,0.0-42.0,,, ,357,,stimuli/21011002.jpg,,,1051905,,feedback_trial,67,image-keyboard-response,,
192,Experiment 3,False,0,,True,True,011,0,,0,False,False,,False,False,110,,,,,,,0.0-43.0,,,1,4272,[0],stimuli/0011110.jpg,,,1056193,,prediction_trial,68,image-keyboard-response,,
192,Experiment 3,,,,,,,,,0,,,,,,,,,,,,,0.0-44.0,,, ,709,,stimuli/00111100.jpg,,,1056921,,feedback_trial,69,image-keyboard-response,,
192,Experiment 3,True,1,,True,True,110,2,,2,True,True,,True,True,000,,,,,,,0.0-45.0,,,2,1736,[2],stimuli/2110000.jpg,,,1058672,,prediction_trial,70,image-keyboard-response,,
192,Experiment 3,,,,,,,,,2,,,,,,,,,,,,,0.0-46.0,,, ,616,,stimuli/21100002.jpg,,,1059313,,feedback_trial,71,image-keyboard-response,,
192,Experiment 3,True,1,,True,True,101,1,,1,True,True,,True,True,100,,,,,,,0.0-47.0,,,1,1257,[1],stimuli/1101100.jpg,,,1060584,,prediction_trial,72,image-keyboard-response,,
192,Experiment 3,,,,,,,,,1,,,,,,,,,,,,,0.0-48.0,,, ,407,,stimuli/11011001.jpg,,,1061009,,feedback_trial,73,image-keyboard-response,,
192,Experiment 3,True,1,,False,True,001,2,,2,False,True,,True,True,000,,,,,,,0.0-49.0,,,2,2551,[2],stimuli/2001000.jpg,,,1063577,,prediction_trial,74,image-keyboard-response,,
192,Experiment 3,,,,,,,,,2,,,,,,,,,,,,,0.0-50.0,,, ,464,,stimuli/20010002.jpg,,,1064065,,feedback_trial,75,image-keyboard-response,,
192,Experiment 3,True,1,,False,False,011,1,,1,False,False,,False,True,010,,,,,,,0.0-51.0,,,1,2204,[1],stimuli/1011010.jpg,,,1066290,,prediction_trial,76,image-keyboard-response,,
192,Experiment 3,,,,,,,,,1,,,,,,,,,,,,,0.0-52.0,,, ,357,,stimuli/10110101.jpg,,,1066665,,feedback_trial,77,image-keyboard-response,,
192,Experiment 3,True,1,,True,True,000,0,,0,False,False,,False,False,110,,,,,,,0.0-53.0,,,0,4629,[0],stimuli/0000110.jpg,,,1071313,,prediction_trial,78,image-keyboard-response,,
192,Experiment 3,,,,,,,,,0,,,,,,,,,,,,,0.0-54.0,,, ,286,,stimuli/00001100.jpg,,,1071618,,feedback_trial,79,image-keyboard-response,,
192,Experiment 3,True,1,,True,True,010,2,,2,True,True,,True,True,110,,,,,,,0.0-55.0,,,2,1219,[2],stimuli/2010110.jpg,,,1072858,,prediction_trial,80,image-keyboard-response,,
192,Experiment 3,,,,,,,,,2,,,,,,,,,,,,,0.0-56.0,,, ,279,,stimuli/20101102.jpg,,,1073153,,feedback_trial,81,image-keyboard-response,,
192,Experiment 3,True,1,,True,True,100,1,,1,True,True,,True,True,001,,,,,,,0.0-57.0,,,1,941,[1],stimuli/1100001.jpg,,,1074113,,prediction_trial,82,image-keyboard-response,,
192,Experiment 3,,,,,,,,,1,,,,,,,,,,,,,0.0-58.0,,, ,284,,stimuli/11000011.jpg,,,1074417,,feedback_trial,83,image-keyboard-response,,
192,Experiment 3,True,1,,False,False,110,0,,0,False,False,,True,True,011,,,,,,,0.0-59.0,,,0,1239,[0],stimuli/0110011.jpg,,,1075673,,prediction_trial,84,image-keyboard-response,,
192,Experiment 3,,,,,,,,,0,,,,,,,,,,,,,0.0-60.0,,, ,288,,stimuli/01100110.jpg,,,1075977,,feedback_trial,85,image-keyboard-response,,
192,Experiment 3,True,1,,False,False,011,2,,2,False,False,,True,True,010,,,,,,,0.0-61.0,,,2,1240,[2],stimuli/2011010.jpg,,,1077233,,prediction_trial,86,image-keyboard-response,,
192,Experiment 3,,,,,,,,,2,,,,,,,,,,,,,0.0-62.0,,, ,271,,stimuli/20110102.jpg,,,1077521,,feedback_trial,87,image-keyboard-response,,
192,Experiment 3,True,1,,False,False,110,0,,0,False,False,,True,True,000,,,,,,,0.0-63.0,,,0,1248,[0],stimuli/0110000.jpg,,,1078785,,prediction_trial,88,image-keyboard-response,,
192,Experiment 3,,,,,,,,,0,,,,,,,,,,,,,0.0-64.0,,, ,249,,stimuli/01100000.jpg,,,1079058,,feedback_trial,89,image-keyboard-response,,
192,Experiment 3,True,1,,False,True,100,0,,0,False,True,,True,True,011,,,,,,,0.0-65.0,,,0,1799,[0],stimuli/0100011.jpg,,,1080873,,prediction_trial,90,image-keyboard-response,,
192,Experiment 3,,,,,,,,,0,,,,,,,,,,,,,0.0-66.0,,, ,246,,stimuli/01000110.jpg,,,1081137,,feedback_trial,91,image-keyboard-response,,
192,Experiment 3,True,1,,False,True,100,0,,0,False,True,,True,True,000,,,,,,,0.0-67.0,,,0,1314,[0],stimuli/0100000.jpg,,,1082467,,prediction_trial,92,image-keyboard-response,,
192,Experiment 3,,,,,,,,,0,,,,,,,,,,,,,0.0-68.0,,, ,262,,stimuli/01000000.jpg,,,1082745,,feedback_trial,93,image-keyboard-response,,
192,Experiment 3,True,1,,True,True,000,0,,0,True,True,,True,True,001,,,,,,,0.0-69.0,,,0,1224,[0],stimuli/0000001.jpg,,,1083985,,prediction_trial,94,image-keyboard-response,,
192,Experiment 3,,,,,,,,,0,,,,,,,,,,,,,0.0-70.0,,, ,279,,stimuli/00000010.jpg,,,1084281,,feedback_trial,95,image-keyboard-response,,
192,Experiment 3,False,0,,False,False,101,2,,2,False,False,,False,False,111,,,,,,,0.0-71.0,,,1,2736,[2],stimuli/2101111.jpg,,,1087033,,prediction_trial,96,image-keyboard-response,,
192,Experiment 3,,,,,,,,,2,,,,,,,,,,,,,0.0-72.0,,, ,279,,stimuli/21011112.jpg,,,1087329,,feedback_trial,97,image-keyboard-response,,
192,Experiment 3,True,1,,True,True,001,1,,1,False,False,,False,False,110,,,,,,,0.0-73.0,,,1,1982,[1],stimuli/1001110.jpg,,,1089329,,prediction_trial,98,image-keyboard-response,,
192,Experiment 3,,,,,,,,,1,,,,,,,,,,,,,0.0-74.0,,, ,221,,stimuli/10011101.jpg,,,1089569,,feedback_trial,99,image-keyboard-response,,
192,Experiment 3,True,1,,True,True,011,0,,0,True,True,,True,True,000,,,,,,,0.0-75.0,,,0,1023,[0],stimuli/0011000.jpg,,,1090609,,prediction_trial,100,image-keyboard-response,,
192,Experiment 3,,,,,,,,,0,,,,,,,,,,,,,0.0-76.0,,, ,275,,stimuli/00110000.jpg,,,1090905,,feedback_trial,101,image-keyboard-response,,
192,Experiment 3,True,1,,True,True,000,2,,2,True,True,,True,True,010,,,,,,,0.0-77.0,,,2,928,[2],stimuli/2000010.jpg,,,1091849,,prediction_trial,102,image-keyboard-response,,
192,Experiment 3,,,,,,,,,2,,,,,,,,,,,,,0.0-78.0,,, ,248,,stimuli/20000102.jpg,,,1092113,,feedback_trial,103,image-keyboard-response,,
192,Experiment 3,True,1,,True,True,000,2,,2,True,True,,True,True,110,,,,,,,0.0-79.0,,,2,1089,[2],stimuli/2000110.jpg,,,1093217,,prediction_trial,104,image-keyboard-response,,
192,Experiment 3,,,,,,,,,2,,,,,,,,,,,,,0.0-80.0,,, ,238,,stimuli/20001102.jpg,,,1093481,,feedback_trial,105,image-keyboard-response,,
192,Experiment 3,False,0,,False,False,011,2,,2,False,False,,False,False,111,,,,,,,0.0-81.0,,,0,1470,[2],stimuli/2011111.jpg,,,1094977,,prediction_trial,106,image-keyboard-response,,
192,Experiment 3,,,,,,,,,2,,,,,,,,,,,,,0.0-82.0,,, ,409,,stimuli/20111112.jpg,,,1095400,,feedback_trial,107,image-keyboard-response,,
192,Experiment 3,True,1,,True,True,100,2,,2,True,True,,True,True,010,,,,,,,0.0-83.0,,,2,1192,[2],stimuli/2100010.jpg,,,1096609,,prediction_trial,108,image-keyboard-response,,
192,Experiment 3,,,,,,,,,2,,,,,,,,,,,,,0.0-84.0,,, ,225,,stimuli/21000102.jpg,,,1096849,,feedback_trial,109,image-keyboard-response,,
192,Experiment 3,True,1,,False,False,101,2,,2,False,False,,True,True,110,,,,,,,0.0-85.0,,,2,950,[2],stimuli/2101110.jpg,,,1097817,,prediction_trial,110,image-keyboard-response,,
192,Experiment 3,,,,,,,,,2,,,,,,,,,,,,,0.0-86.0,,, ,229,,stimuli/21011102.jpg,,,1098065,,feedback_trial,111,image-keyboard-response,,
192,Experiment 3,True,1,,False,True,001,2,,2,False,True,,True,True,010,,,,,,,0.0-87.0,,,2,704,[2],stimuli/2001010.jpg,,,1098784,,prediction_trial,112,image-keyboard-response,,
192,Experiment 3,,,,,,,,,2,,,,,,,,,,,,,0.0-88.0,,, ,255,,stimuli/20010102.jpg,,,1099058,,feedback_trial,113,image-keyboard-response,,
192,Experiment 3,True,1,,False,False,011,2,,2,False,False,,False,False,011,,,,,,,0.0-89.0,,,2,2070,[2],stimuli/2011011.jpg,,,1101145,,prediction_trial,114,image-keyboard-response,,
192,Experiment 3,,,,,,,,,2,,,,,,,,,,,,,0.0-90.0,,, ,247,,stimuli/20110112.jpg,,,1101409,,feedback_trial,115,image-keyboard-response,,
192,Experiment 3,True,1,,False,False,111,2,,2,False,False,,False,True,001,,,,,,,0.0-91.0,,,2,1815,[2],stimuli/2111001.jpg,,,1103242,,prediction_trial,116,image-keyboard-response,,
192,Experiment 3,,,,,,,,,2,,,,,,,,,,,,,0.0-92.0,,, ,246,,stimuli/21110012.jpg,,,1103505,,feedback_trial,117,image-keyboard-response,,
192,Experiment 3,False,0,,False,True,100,0,,0,False,False,,False,False,111,,,,,,,0.0-93.0,,,2,5773,[0],stimuli/0100111.jpg,,,1109297,,prediction_trial,118,image-keyboard-response,,
192,Experiment 3,,,,,,,,,0,,,,,,,,,,,,,0.0-94.0,,, ,277,,stimuli/01001110.jpg,,,1109593,,feedback_trial,119,image-keyboard-response,,
192,Experiment 3,True,1,,False,False,110,0,,0,False,False,,False,False,111,,,,,,,0.0-95.0,,,0,2558,[0],stimuli/0110111.jpg,,,1112169,,prediction_trial,120,image-keyboard-response,,
192,Experiment 3,,,,,,,,,0,,,,,,,,,,,,,0.0-96.0,,, ,224,,stimuli/01101110.jpg,,,1112409,,feedback_trial,121,image-keyboard-response,,
192,Experiment 3,True,1,,False,False,101,2,,2,False,False,,True,True,010,,,,,,,0.0-97.0,,,2,1591,[2],stimuli/2101010.jpg,,,1114017,,prediction_trial,122,image-keyboard-response,,
192,Experiment 3,,,,,,,,,2,,,,,,,,,,,,,0.0-98.0,,, ,254,,stimuli/21010102.jpg,,,1114290,,feedback_trial,123,image-keyboard-response,,
192,Experiment 3,True,1,,False,False,011,1,,1,False,False,,False,False,110,,,,,,,0.0-99.0,,,1,6161,[1],stimuli/1011110.jpg,,,1120473,,prediction_trial,124,image-keyboard-response,,
192,Experiment 3,,,,,,,,,1,,,,,,,,,,,,,0.0-100.0,,, ,432,,stimuli/10111101.jpg,,,1120922,,feedback_trial,125,image-keyboard-response,,
192,Experiment 3,True,1,,False,True,001,2,,2,False,True,,True,True,110,,,,,,,0.0-101.0,,,2,1031,[2],stimuli/2001110.jpg,,,1121969,,prediction_trial,126,image-keyboard-response,,
192,Experiment 3,,,,,,,,,2,,,,,,,,,,,,,0.0-102.0,,, ,272,,stimuli/20011102.jpg,,,1122257,,feedback_trial,127,image-keyboard-response,,
192,Experiment 3,True,1,,False,False,111,0,,0,False,False,,True,True,010,,,,,,,0.0-103.0,,,0,1149,[0],stimuli/0111010.jpg,,,1123425,,prediction_trial,128,image-keyboard-response,,
192,Experiment 3,,,,,,,,,0,,,,,,,,,,,,,0.0-104.0,,, ,324,,stimuli/01110100.jpg,,,1123769,,feedback_trial,129,image-keyboard-response,,
192,Experiment 3,True,1,,True,True,000,1,,1,True,True,,True,True,100,,,,,,,0.0-105.0,,,1,1374,[1],stimuli/1000100.jpg,,,1125161,,prediction_trial,130,image-keyboard-response,,
192,Experiment 3,,,,,,,,,1,,,,,,,,,,,,,0.0-106.0,,, ,389,,stimuli/10001001.jpg,,,1125569,,feedback_trial,131,image-keyboard-response,,
192,Experiment 3,True,1,,False,False,101,0,,0,False,False,,False,False,110,,,,,,,0.0-107.0,,,0,1792,[0],stimuli/0101110.jpg,,,1127376,,prediction_trial,132,image-keyboard-response,,
192,Experiment 3,,,,,,,,,0,,,,,,,,,,,,,0.0-108.0,,, ,281,,stimuli/01011100.jpg,,,1127673,,feedback_trial,133,image-keyboard-response,,
192,Experiment 3,False,0,,True,True,110,2,,2,False,False,,False,False,101,,,,,,,0.0-109.0,,,0,1718,[2],stimuli/2110101.jpg,,,1129409,,prediction_trial,134,image-keyboard-response,,
192,Experiment 3,,,,,,,,,2,,,,,,,,,,,,,0.0-110.0,,, ,245,,stimuli/21101012.jpg,,,1129673,,feedback_trial,135,image-keyboard-response,,
192,Experiment 3,True,1,,False,False,101,0,,0,False,False,,False,False,101,,,,,,,0.0-111.0,,,0,1791,[0],stimuli/0101101.jpg,,,1131481,,prediction_trial,136,image-keyboard-response,,
192,Experiment 3,,,,,,,,,0,,,,,,,,,,,,,0.0-112.0,,, ,256,,stimuli/01011010.jpg,,,1131753,,feedback_trial,137,image-keyboard-response,,
192,Experiment 3,True,1,,False,False,110,1,,1,False,False,,True,True,000,,,,,,,0.0-113.0,,,1,976,[1],stimuli/1110000.jpg,,,1132745,,prediction_trial,138,image-keyboard-response,,
192,Experiment 3,,,,,,,,,1,,,,,,,,,,,,,0.0-114.0,,, ,296,,stimuli/11100001.jpg,,,1133057,,feedback_trial,139,image-keyboard-response,,
192,Experiment 3,True,1,,True,True,010,0,,0,True,True,,True,True,000,,,,,,,0.0-115.0,,,0,808,[0],stimuli/0010000.jpg,,,1133881,,prediction_trial,140,image-keyboard-response,,
192,Experiment 3,,,,,,,,,0,,,,,,,,,,,,,0.0-116.0,,, ,280,,stimuli/00100000.jpg,,,1134176,,feedback_trial,141,image-keyboard-response,,
192,Experiment 3,True,1,,False,False,110,1,,1,False,False,,False,False,111,,,,,,,0.0-117.0,,,1,2007,[1],stimuli/1110111.jpg,,,1136201,,prediction_trial,142,image-keyboard-response,,
192,Experiment 3,,,,,,,,,1,,,,,,,,,,,,,0.0-118.0,,, ,264,,stimuli/11101111.jpg,,,1136481,,feedback_trial,143,image-keyboard-response,,
192,Experiment 3,False,0,,True,True,101,1,,1,False,False,,False,False,111,,,,,,,0.0-119.0,,,2,2857,[1],stimuli/1101111.jpg,,,1139353,,prediction_trial,144,image-keyboard-response,,
192,Experiment 3,,,,,,,,,1,,,,,,,,,,,,,0.0-120.0,,, ,208,,stimuli/11011111.jpg,,,1139577,,feedback_trial,145,image-keyboard-response,,
192,Experiment 3,True,1,,True,True,010,2,,2,True,True,,True,True,100,,,,,,,0.0-121.0,,,2,1039,[2],stimuli/2010100.jpg,,,1140633,,prediction_trial,146,image-keyboard-response,,
192,Experiment 3,,,,,,,,,2,,,,,,,,,,,,,0.0-122.0,,, ,237,,stimuli/20101002.jpg,,,1140889,,feedback_trial,147,image-keyboard-response,,
192,Experiment 3,True,1,,False,False,111,1,,1,False,False,,False,True,010,,,,,,,0.0-123.0,,,1,1744,[1],stimuli/1111010.jpg,,,1142650,,prediction_trial,148,image-keyboard-response,,
192,Experiment 3,,,,,,,,,1,,,,,,,,,,,,,0.0-124.0,,, ,246,,stimuli/11110101.jpg,,,1142913,,feedback_trial,149,image-keyboard-response,,
192,Experiment 3,True,1,,False,True,100,0,,0,False,True,,False,True,100,,,,,,,0.0-125.0,,,0,1957,[0],stimuli/0100100.jpg,,,1144889,,prediction_trial,150,image-keyboard-response,,
192,Experiment 3,,,,,,,,,0,,,,,,,,,,,,,0.0-126.0,,, ,279,,stimuli/01001000.jpg,,,1145186,,feedback_trial,151,image-keyboard-response,,
192,Experiment 3,True,1,,False,False,011,1,,1,False,False,,True,True,001,,,,,,,0.0-127.0,,,1,1189,[1],stimuli/1011001.jpg,,,1146393,,prediction_trial,152,image-keyboard-response,,
192,Experiment 3,,,,,,,,,1,,,,,,,,,,,,,0.0-128.0,,, ,252,,stimuli/10110011.jpg,,,1146665,,feedback_trial,153,image-keyboard-response,,
192,Experiment 3,False,0,,True,True,110,2,,2,False,False,,False,False,011,,,,,,,0.0-129.0,,,1,3184,[2],stimuli/2110011.jpg,,,1149873,,prediction_trial,154,image-keyboard-response,,
192,Experiment 3,,,,,,,,,2,,,,,,,,,,,,,0.0-130.0,,, ,256,,stimuli/21100112.jpg,,,1150145,,feedback_trial,155,image-keyboard-response,,
192,Experiment 3,True,1,,False,False,110,0,,0,False,False,,True,True,010,,,,,,,0.0-131.0,,,0,1064,[0],stimuli/0110010.jpg,,,1151225,,prediction_trial,156,image-keyboard-response,,
192,Experiment 3,,,,,,,,,0,,,,,,,,,,,,,0.0-132.0,,, ,178,,stimuli/01100100.jpg,,,1151433,,feedback_trial,157,image-keyboard-response,,
192,Experiment 3,True,1,,False,False,111,0,,0,False,False,,True,True,011,,,,,,,0.0-133.0,,,0,1175,[0],stimuli/0111011.jpg,,,1152625,,prediction_trial,158,image-keyboard-response,,
192,Experiment 3,,,,,,,,,0,,,,,,,,,,,,,0.0-134.0,,, ,295,,stimuli/01110110.jpg,,,1152937,,feedback_trial,159,image-keyboard-response,,
192,Experiment 3,True,1,,True,True,001,0,,0,False,True,,False,True,100,,,,,,,0.0-135.0,,,0,1976,[0],stimuli/0001100.jpg,,,1154929,,prediction_trial,160,image-keyboard-response,,
192,Experiment 3,,,,,,,,,0,,,,,,,,,,,,,0.0-136.0,,, ,303,,stimuli/00011000.jpg,,,1155249,,feedback_trial,161,image-keyboard-response,,
192,Experiment 3,True,1,,True,True,010,0,,0,False,True,,False,True,100,,,,,,,0.0-137.0,,,0,1473,[0],stimuli/0010100.jpg,,,1156737,,prediction_trial,162,image-keyboard-response,,
192,Experiment 3,,,,,,,,,0,,,,,,,,,,,,,0.0-138.0,,, ,272,,stimuli/00101000.jpg,,,1157025,,feedback_trial,163,image-keyboard-response,,
192,Experiment 3,True,1,,False,False,111,1,,1,False,False,,True,True,101,,,,,,,0.0-139.0,,,1,1009,[1],stimuli/1111101.jpg,,,1158049,,prediction_trial,164,image-keyboard-response,,
192,Experiment 3,,,,,,,,,1,,,,,,,,,,,,,0.0-140.0,,, ,279,,stimuli/11111011.jpg,,,1158345,,feedback_trial,165,image-keyboard-response,,
192,Experiment 3,True,1,,True,True,000,0,,0,False,True,,False,True,100,,,,,,,0.0-141.0,,,0,1481,[0],stimuli/0000100.jpg,,,1159842,,prediction_trial,166,image-keyboard-response,,
192,Experiment 3,,,,,,,,,0,,,,,,,,,,,,,0.0-142.0,,, ,253,,stimuli/00001000.jpg,,,1160113,,feedback_trial,167,image-keyboard-response,,
192,Experiment 3,False,0,,False,False,011,2,,2,False,False,,False,False,101,,,,,,,0.0-143.0,,,0,4774,[2],stimuli/2011101.jpg,,,1164906,,prediction_trial,168,image-keyboard-response,,
192,Experiment 3,,,,,,,,,2,,,,,,,,,,,,,0.0-144.0,,, ,273,,stimuli/20111012.jpg,,,1165202,,feedback_trial,169,image-keyboard-response,,
192,Experiment 3,True,1,,False,True,010,1,,1,False,True,,True,True,100,,,,,,,0.0-145.0,,,1,1342,[1],stimuli/1010100.jpg,,,1166562,,prediction_trial,170,image-keyboard-response,,
192,Experiment 3,,,,,,,,,1,,,,,,,,,,,,,0.0-146.0,,, ,238,,stimuli/10101001.jpg,,,1166817,,feedback_trial,171,image-keyboard-response,,
192,Experiment 3,True,1,,False,False,101,2,,2,False,False,,False,True,001,,,,,,,0.0-147.0,,,2,1407,[2],stimuli/2101001.jpg,,,1168241,,prediction_trial,172,image-keyboard-response,,
192,Experiment 3,,,,,,,,,2,,,,,,,,,,,,,0.0-148.0,,, ,256,,stimuli/21010012.jpg,,,1168513,,feedback_trial,173,image-keyboard-response,,
192,Experiment 3,True,1,,True,True,001,1,,1,False,False,,False,False,111,,,,,,,0.0-149.0,,,1,3689,[1],stimuli/1001111.jpg,,,1172217,,prediction_trial,174,image-keyboard-response,,
192,Experiment 3,,,,,,,,,1,,,,,,,,,,,,,0.0-150.0,,, ,265,,stimuli/10011111.jpg,,,1172506,,feedback_trial,175,image-keyboard-response,,
192,Experiment 3,True,1,,True,True,000,2,,2,False,False,,False,False,101,,,,,,,0.0-151.0,,,2,3880,[2],stimuli/2000101.jpg,,,1176401,,prediction_trial,176,image-keyboard-response,,
192,Experiment 3,,,,,,,,,2,,,,,,,,,,,,,0.0-152.0,,, ,239,,stimuli/20001012.jpg,,,1176657,,feedback_trial,177,image-keyboard-response,,
192,Experiment 3,True,1,,False,False,111,2,,2,False,False,,False,False,111,,,,,,,0.0-153.0,,,2,2287,[2],stimuli/2111111.jpg,,,1178961,,prediction_trial,178,image-keyboard-response,,
192,Experiment 3,,,,,,,,,2,,,,,,,,,,,,,0.0-154.0,,, ,216,,stimuli/21111112.jpg,,,1179194,,feedback_trial,179,image-keyboard-response,,
192,Experiment 3,True,1,,True,True,100,2,,2,True,True,,True,True,000,,,,,,,0.0-155.0,,,2,1092,[2],stimuli/2100000.jpg,,,1180305,,prediction_trial,180,image-keyboard-response,,
192,Experiment 3,,,,,,,,,2,,,,,,,,,,,,,0.0-156.0,,, ,280,,stimuli/21000002.jpg,,,1180601,,feedback_trial,181,image-keyboard-response,,
192,Experiment 3,False,0,,True,True,100,1,,1,False,False,,False,False,011,,,,,,,0.0-157.0,,,2,1544,[1],stimuli/1100011.jpg,,,1182161,,prediction_trial,182,image-keyboard-response,,
192,Experiment 3,,,,,,,,,1,,,,,,,,,,,,,0.0-158.0,,, ,232,,stimuli/11000111.jpg,,,1182409,,feedback_trial,183,image-keyboard-response,,
192,Experiment 3,True,1,,True,True,000,1,,1,True,True,,True,True,101,,,,,,,0.0-159.0,,,1,897,[1],stimuli/1000101.jpg,,,1183321,,prediction_trial,184,image-keyboard-response,,
192,Experiment 3,,,,,,,,,1,,,,,,,,,,,,,0.0-160.0,,, ,248,,stimuli/10001011.jpg,,,1183585,,feedback_trial,185,image-keyboard-response,,
192,Experiment 3,False,0,,True,True,010,2,,2,False,False,,False,False,111,,,,,,,0.0-161.0,,,0,4327,[2],stimuli/2010111.jpg,,,1187929,,prediction_trial,186,image-keyboard-response,,
192,Experiment 3,,,,,,,,,2,,,,,,,,,,,,,0.0-162.0,,, ,280,,stimuli/20101112.jpg,,,1188225,,feedback_trial,187,image-keyboard-response,,
192,Experiment 3,True,1,,True,True,010,0,,0,False,False,,False,False,101,,,,,,,0.0-163.0,,,0,2505,[0],stimuli/0010101.jpg,,,1190753,,prediction_trial,188,image-keyboard-response,,
192,Experiment 3,,,,,,,,,0,,,,,,,,,,,,,0.0-164.0,,, ,245,,stimuli/00101010.jpg,,,1191017,,feedback_trial,189,image-keyboard-response,,
192,Experiment 3,True,1,,True,True,001,1,,1,True,True,,True,True,101,,,,,,,0.0-165.0,,,1,1176,[1],stimuli/1001101.jpg,,,1192209,,prediction_trial,190,image-keyboard-response,,
192,Experiment 3,,,,,,,,,1,,,,,,,,,,,,,0.0-166.0,,, ,281,,stimuli/10011011.jpg,,,1192513,,feedback_trial,191,image-keyboard-response,,
192,Experiment 3,True,1,,True,True,010,2,,2,True,True,,True,True,000,,,,,,,0.0-167.0,,,2,736,[2],stimuli/2010000.jpg,,,1193265,,prediction_trial,192,image-keyboard-response,,
192,Experiment 3,,,,,,,,,2,,,,,,,,,,,,,0.0-168.0,,, ,280,,stimuli/20100002.jpg,,,1193561,,feedback_trial,193,image-keyboard-response,,
192,Experiment 3,False,0,,True,True,001,0,,0,False,False,,False,False,101,,,,,,,0.0-169.0,,,2,2142,[0],stimuli/0001101.jpg,,,1195722,,prediction_trial,194,image-keyboard-response,,
192,Experiment 3,,,,,,,,,0,,,,,,,,,,,,,0.0-170.0,,, ,308,,stimuli/00011010.jpg,,,1196049,,feedback_trial,195,image-keyboard-response,,
192,Experiment 3,True,1,,True,True,000,0,,0,True,True,,True,True,010,,,,,,,0.0-171.0,,,0,992,[0],stimuli/0000010.jpg,,,1197058,,prediction_trial,196,image-keyboard-response,,
192,Experiment 3,,,,,,,,,0,,,,,,,,,,,,,0.0-172.0,,, ,255,,stimuli/00000100.jpg,,,1197329,,feedback_trial,197,image-keyboard-response,,
192,Experiment 3,False,0,,False,True,100,0,,0,False,False,,False,False,110,,,,,,,0.0-173.0,,,2,4184,[0],stimuli/0100110.jpg,,,1201529,,prediction_trial,198,image-keyboard-response,,
192,Experiment 3,,,,,,,,,0,,,,,,,,,,,,,0.0-174.0,,, ,960,,stimuli/01001100.jpg,,,1202505,,feedback_trial,199,image-keyboard-response,,
192,Experiment 3,True,1,,False,False,011,2,,2,False,False,,True,True,110,,,,,,,0.0-175.0,,,2,1200,[2],stimuli/2011110.jpg,,,1203721,,prediction_trial,200,image-keyboard-response,,
192,Experiment 3,,,,,,,,,2,,,,,,,,,,,,,0.0-176.0,,, ,727,,stimuli/20111102.jpg,,,1204466,,feedback_trial,201,image-keyboard-response,,
192,Experiment 3,True,1,,True,True,100,2,,2,False,True,,False,True,001,,,,,,,0.0-177.0,,,2,2019,[2],stimuli/2100001.jpg,,,1206506,,prediction_trial,202,image-keyboard-response,,
192,Experiment 3,,,,,,,,,2,,,,,,,,,,,,,0.0-178.0,,, ,271,,stimuli/21000012.jpg,,,1206793,,feedback_trial,203,image-keyboard-response,,
192,Experiment 3,True,1,,True,True,001,1,,1,True,True,,True,True,100,,,,,,,0.0-179.0,,,1,839,[1],stimuli/1001100.jpg,,,1207650,,prediction_trial,204,image-keyboard-response,,
192,Experiment 3,,,,,,,,,1,,,,,,,,,,,,,0.0-180.0,,, ,263,,stimuli/10011001.jpg,,,1207930,,feedback_trial,205,image-keyboard-response,,
192,Experiment 3,True,1,,True,True,000,2,,2,False,True,,False,True,001,,,,,,,0.0-181.0,,,2,1096,[2],stimuli/2000001.jpg,,,1209050,,prediction_trial,206,image-keyboard-response,,
192,Experiment 3,,,,,,,,,2,,,,,,,,,,,,,0.0-182.0,,, ,284,,stimuli/20000012.jpg,,,1209353,,feedback_trial,207,image-keyboard-response,,
192,Experiment 3,True,1,,True,True,000,2,,2,True,True,,True,True,000,,,,,,,0.0-183.0,,,2,834,[2],stimuli/2000000.jpg,,,1210210,,prediction_trial,208,image-keyboard-response,,
192,Experiment 3,,,,,,,,,2,,,,,,,,,,,,,0.0-184.0,,, ,295,,stimuli/20000002.jpg,,,1210521,,feedback_trial,209,image-keyboard-response,,
192,Experiment 3,True,1,,True,True,000,0,,0,True,True,,True,True,011,,,,,,,0.0-185.0,,,0,950,[0],stimuli/0000011.jpg,,,1211489,,prediction_trial,210,image-keyboard-response,,
192,Experiment 3,,,,,,,,,0,,,,,,,,,,,,,0.0-186.0,,, ,232,,stimuli/00000110.jpg,,,1211737,,feedback_trial,211,image-keyboard-response,,
192,Experiment 3,True,1,,True,True,010,2,,2,False,True,,False,True,001,,,,,,,0.0-187.0,,,2,1279,[2],stimuli/2010001.jpg,,,1213033,,prediction_trial,212,image-keyboard-response,,
192,Experiment 3,,,,,,,,,2,,,,,,,,,,,,,0.0-188.0,,, ,350,,stimuli/20100012.jpg,,,1213401,,feedback_trial,213,image-keyboard-response,,
192,Experiment 3,False,0,,True,True,101,1,,1,False,False,,False,False,011,,,,,,,0.0-189.0,,,2,4096,[1],stimuli/1101011.jpg,,,1217513,,prediction_trial,214,image-keyboard-response,,
192,Experiment 3,,,,,,,,,1,,,,,,,,,,,,,0.0-190.0,,, ,1637,,stimuli/11010111.jpg,,,1219170,,feedback_trial,215,image-keyboard-response,,
192,Experiment 3,True,1,,True,True,011,0,,0,True,True,,True,True,011,,,,,,,0.0-191.0,,,0,1224,[0],stimuli/0011011.jpg,,,1220409,,prediction_trial,216,image-keyboard-response,,
192,Experiment 3,,,,,,,,,0,,,,,,,,,,,,,0.0-192.0,,, ,296,,stimuli/00110110.jpg,,,1220721,,feedback_trial,217,image-keyboard-response,,
192,Experiment 3,True,1,,False,False,101,0,,0,False,False,,False,True,100,,,,,,,0.0-193.0,,,0,2181,[0],stimuli/0101100.jpg,,,1222921,,prediction_trial,218,image-keyboard-response,,
192,Experiment 3,,,,,,,,,0,,,,,,,,,,,,,0.0-194.0,,, ,262,,stimuli/01011000.jpg,,,1223202,,feedback_trial,219,image-keyboard-response,,
192,Experiment 3,True,1,,False,False,111,0,,0,False,False,,True,True,000,,,,,,,0.0-195.0,,,0,1409,[0],stimuli/0111000.jpg,,,1224634,,prediction_trial,220,image-keyboard-response,,
192,Experiment 3,,,,,,,,,0,,,,,,,,,,,,,0.0-196.0,,, ,269,,stimuli/01110000.jpg,,,1224921,,feedback_trial,221,image-keyboard-response,,
192,Experiment 3,True,1,,True,True,100,2,,2,False,False,,False,False,011,,,,,,,0.0-197.0,,,2,4375,[2],stimuli/2100011.jpg,,,1229314,,prediction_trial,222,image-keyboard-response,,
192,Experiment 3,,,,,,,,,2,,,,,,,,,,,,,0.0-198.0,,, ,317,,stimuli/21000112.jpg,,,1229650,,feedback_trial,223,image-keyboard-response,,
192,Experiment 3,True,1,,True,True,010,2,,2,False,False,,False,False,011,,,,,,,0.0-199.0,,,2,5030,[2],stimuli/2010011.jpg,,,1234705,,prediction_trial,224,image-keyboard-response,,
192,Experiment 3,,,,,,,,,2,,,,,,,,,,,,,0.0-200.0,,, ,246,,stimuli/20100112.jpg,,,1234969,,feedback_trial,225,image-keyboard-response,,
192,Experiment 3,True,1,,True,True,110,2,,2,False,True,,False,True,001,,,,,,,0.0-201.0,,,2,2472,[2],stimuli/2110001.jpg,,,1237457,,prediction_trial,226,image-keyboard-response,,
192,Experiment 3,,,,,,,,,2,,,,,,,,,,,,,0.0-202.0,,, ,320,,stimuli/21100012.jpg,,,1237794,,feedback_trial,227,image-keyboard-response,,
192,Experiment 3,True,1,,True,True,010,0,,0,False,False,,False,False,110,,,,,,,0.0-203.0,,,0,3944,[0],stimuli/0010110.jpg,,,1241753,,prediction_trial,228,image-keyboard-response,,
192,Experiment 3,,,,,,,,,0,,,,,,,,,,,,,0.0-204.0,,, ,279,,stimuli/00101100.jpg,,,1242050,,feedback_trial,229,image-keyboard-response,,
192,Experiment 3,True,1,,False,True,100,0,,0,False,True,,True,True,001,,,,,,,0.0-205.0,,,0,975,[0],stimuli/0100001.jpg,,,1243041,,prediction_trial,230,image-keyboard-response,,
