workerid,proliferate.condition,accuracy,accuracy_bool,alter_ball_visible,alter_can_infer,alter_occluders,ball_pos,character_choice,collective_ball_visible,collective_can_infer,ego_ball_visible,ego_can_infer,ego_occluders,internal_node_id,response,rt,search_locations,stimulus,time_elapsed,trial,trial_index,trial_type,error
204,Experiment 3,True,1,True,True,001,0,0,True,True,True,True,011,0.0-5.0,0,943,[0],stimuli/0001011.jpg,92343,prediction_trial,30,image-keyboard-response,
204,Experiment 3,True,1,True,True,100,1,1,False,False,False,False,110,0.0-7.0,1,1417,[1],stimuli/1100110.jpg,94479,prediction_trial,32,image-keyboard-response,
204,Experiment 3,False,0,False,False,111,0,0,False,False,False,False,101,0.0-9.0,2,1294,[0],stimuli/0111101.jpg,96560,prediction_trial,34,image-keyboard-response,
204,Experiment 3,False,0,False,False,011,1,1,False,False,False,False,110,0.0-11.0,0,1676,[1],stimuli/1011110.jpg,99347,prediction_trial,36,image-keyboard-response,
204,Experiment 3,True,1,True,True,010,2,2,True,True,True,True,010,0.0-13.0,2,800,[2],stimuli/2010010.jpg,100909,prediction_trial,38,image-keyboard-response,
204,Experiment 3,False,0,False,False,111,0,0,False,False,False,False,111,0.0-15.0,1,1089,[0],stimuli/0111111.jpg,102709,prediction_trial,40,image-keyboard-response,
204,Experiment 3,True,1,False,False,110,1,1,False,False,True,True,100,0.0-17.0,1,704,[1],stimuli/1110100.jpg,104131,prediction_trial,42,image-keyboard-response,
204,Experiment 3,True,1,False,False,101,2,2,False,False,True,True,010,0.0-19.0,2,611,[2],stimuli/2101010.jpg,105300,prediction_trial,44,image-keyboard-response,
204,Experiment 3,True,1,True,True,100,1,1,True,True,True,True,001,0.0-21.0,1,728,[1],stimuli/1100001.jpg,106684,prediction_trial,46,image-keyboard-response,
204,Experiment 3,True,1,True,True,011,0,0,True,True,True,True,010,0.0-23.0,0,756,[0],stimuli/0011010.jpg,108152,prediction_trial,48,image-keyboard-response,
204,Experiment 3,True,1,False,False,011,2,2,False,False,False,False,111,0.0-25.0,2,1234,[2],stimuli/2011111.jpg,109966,prediction_trial,50,image-keyboard-response,
204,Experiment 3,True,1,True,True,100,1,1,True,True,True,True,101,0.0-27.0,1,927,[1],stimuli/1100101.jpg,111710,prediction_trial,52,image-keyboard-response,
204,Experiment 3,True,1,False,False,111,1,1,False,False,True,True,101,0.0-29.0,1,773,[1],stimuli/1111101.jpg,113031,prediction_trial,54,image-keyboard-response,
204,Experiment 3,True,1,False,False,110,1,1,False,False,True,True,001,0.0-31.0,1,643,[1],stimuli/1110001.jpg,114321,prediction_trial,56,image-keyboard-response,
204,Experiment 3,True,1,True,True,010,2,2,False,False,False,False,011,0.0-33.0,2,908,[2],stimuli/2010011.jpg,115865,prediction_trial,58,image-keyboard-response,
204,Experiment 3,True,1,False,True,100,0,0,False,False,False,False,110,0.0-35.0,0,909,[0],stimuli/0100110.jpg,117504,prediction_trial,60,image-keyboard-response,
204,Experiment 3,True,1,False,False,111,2,2,False,False,True,True,000,0.0-37.0,2,757,[2],stimuli/2111000.jpg,119005,prediction_trial,62,image-keyboard-response,
204,Experiment 3,True,1,False,True,010,1,1,False,True,True,True,000,0.0-39.0,1,588,[1],stimuli/1010000.jpg,120280,prediction_trial,64,image-keyboard-response,
204,Experiment 3,True,1,True,True,010,0,0,True,True,True,True,000,0.0-41.0,0,615,[0],stimuli/0010000.jpg,121490,prediction_trial,66,image-keyboard-response,
204,Experiment 3,True,1,True,True,100,2,2,True,True,True,True,000,0.0-43.0,2,557,[2],stimuli/2100000.jpg,122583,prediction_trial,68,image-keyboard-response,
204,Experiment 3,False,0,False,False,111,2,2,False,False,False,False,011,0.0-45.0,1,1030,[2],stimuli/2111011.jpg,124127,prediction_trial,70,image-keyboard-response,
204,Experiment 3,False,0,False,False,011,2,2,False,False,False,False,011,0.0-47.0,1,950,[2],stimuli/2011011.jpg,125746,prediction_trial,72,image-keyboard-response,
204,Experiment 3,True,1,True,True,100,2,2,True,True,True,True,010,0.0-49.0,2,664,[2],stimuli/2100010.jpg,127015,prediction_trial,74,image-keyboard-response,
204,Experiment 3,True,1,True,True,101,1,1,True,True,True,True,100,0.0-51.0,1,592,[1],stimuli/1101100.jpg,128180,prediction_trial,76,image-keyboard-response,
204,Experiment 3,False,0,True,True,100,1,1,False,False,False,False,011,0.0-53.0,2,1220,[1],stimuli/1100011.jpg,129895,prediction_trial,78,image-keyboard-response,
204,Experiment 3,True,1,True,True,001,0,0,False,True,False,True,100,0.0-55.0,0,1303,[0],stimuli/0001100.jpg,131842,prediction_trial,80,image-keyboard-response,
204,Experiment 3,True,1,False,False,011,1,1,False,False,True,True,101,0.0-57.0,1,534,[1],stimuli/1011101.jpg,132993,prediction_trial,82,image-keyboard-response,
204,Experiment 3,True,1,True,True,110,2,2,False,True,False,True,001,0.0-59.0,2,589,[2],stimuli/2110001.jpg,134320,prediction_trial,84,image-keyboard-response,
204,Experiment 3,True,1,True,True,011,0,0,True,True,True,True,011,0.0-61.0,0,648,[0],stimuli/0011011.jpg,135532,prediction_trial,86,image-keyboard-response,
204,Experiment 3,False,0,True,True,011,0,0,False,False,False,False,110,0.0-63.0,1,681,[0],stimuli/0011110.jpg,136703,prediction_trial,88,image-keyboard-response,
204,Experiment 3,False,0,True,True,000,0,0,False,False,False,False,101,0.0-65.0,2,682,[0],stimuli/0000101.jpg,137954,prediction_trial,90,image-keyboard-response,
204,Experiment 3,True,1,True,True,101,1,1,False,True,False,True,010,0.0-67.0,1,1024,[1],stimuli/1101010.jpg,139613,prediction_trial,92,image-keyboard-response,
204,Experiment 3,True,1,True,True,101,1,1,True,True,True,True,101,0.0-69.0,1,621,[1],stimuli/1101101.jpg,140596,prediction_trial,94,image-keyboard-response,
204,Experiment 3,False,0,True,True,101,1,1,False,False,False,False,011,0.0-71.0,2,801,[1],stimuli/1101011.jpg,141853,prediction_trial,96,image-keyboard-response,
204,Experiment 3,True,1,False,True,001,2,2,False,True,False,True,001,0.0-73.0,2,822,[2],stimuli/2001001.jpg,143280,prediction_trial,98,image-keyboard-response,
204,Experiment 3,True,1,True,True,001,0,0,False,False,False,False,111,0.0-75.0,0,761,[0],stimuli/0001111.jpg,144544,prediction_trial,100,image-keyboard-response,
204,Experiment 3,True,1,False,False,110,0,0,False,False,False,True,100,0.0-77.0,0,1048,[0],stimuli/0110100.jpg,146217,prediction_trial,102,image-keyboard-response,
204,Experiment 3,True,1,False,False,101,2,2,False,False,False,True,001,0.0-79.0,2,689,[2],stimuli/2101001.jpg,147375,prediction_trial,104,image-keyboard-response,
204,Experiment 3,True,1,True,True,000,0,0,True,True,True,True,011,0.0-81.0,0,654,[0],stimuli/0000011.jpg,148581,prediction_trial,106,image-keyboard-response,
204,Experiment 3,True,1,False,False,011,1,1,False,False,False,True,010,0.0-83.0,1,580,[1],stimuli/1011010.jpg,149654,prediction_trial,108,image-keyboard-response,
204,Experiment 3,False,0,True,True,110,2,2,False,False,False,False,111,0.0-85.0,0,1033,[2],stimuli/2110111.jpg,151207,prediction_trial,110,image-keyboard-response,
204,Experiment 3,True,1,False,True,010,1,1,False,True,True,True,100,0.0-87.0,1,624,[1],stimuli/1010100.jpg,152405,prediction_trial,112,image-keyboard-response,
204,Experiment 3,True,1,True,True,110,2,2,True,True,True,True,000,0.0-89.0,2,573,[2],stimuli/2110000.jpg,153425,prediction_trial,114,image-keyboard-response,
204,Experiment 3,True,1,False,False,011,2,2,False,False,False,True,001,0.0-91.0,2,664,[2],stimuli/2011001.jpg,154589,prediction_trial,116,image-keyboard-response,
204,Experiment 3,False,0,True,True,001,1,1,False,False,False,False,111,0.0-93.0,0,894,[1],stimuli/1001111.jpg,156026,prediction_trial,118,image-keyboard-response,
204,Experiment 3,True,1,False,True,100,0,0,False,True,False,True,100,0.0-95.0,0,1046,[0],stimuli/0100100.jpg,157602,prediction_trial,120,image-keyboard-response,
204,Experiment 3,True,1,True,True,001,1,1,False,False,False,False,110,0.0-97.0,1,852,[1],stimuli/1001110.jpg,158967,prediction_trial,122,image-keyboard-response,
204,Experiment 3,True,1,False,True,001,2,2,False,True,True,True,100,0.0-99.0,2,597,[2],stimuli/2001100.jpg,160130,prediction_trial,124,image-keyboard-response,
204,Experiment 3,True,1,False,False,110,0,0,False,False,True,True,000,0.0-101.0,0,629,[0],stimuli/0110000.jpg,161329,prediction_trial,126,image-keyboard-response,
204,Experiment 3,True,1,True,True,010,0,0,True,True,True,True,011,0.0-103.0,0,643,[0],stimuli/0010011.jpg,162518,prediction_trial,128,image-keyboard-response,
204,Experiment 3,False,0,True,True,100,2,2,False,False,False,False,111,0.0-105.0,1,1110,[2],stimuli/2100111.jpg,164168,prediction_trial,130,image-keyboard-response,
204,Experiment 3,True,1,True,True,000,2,2,True,True,True,True,000,0.0-107.0,2,595,[2],stimuli/2000000.jpg,165326,prediction_trial,132,image-keyboard-response,
204,Experiment 3,True,1,False,False,110,1,1,False,False,True,True,000,0.0-109.0,1,578,[1],stimuli/1110000.jpg,166449,prediction_trial,134,image-keyboard-response,
204,Experiment 3,False,0,False,True,001,2,2,False,False,False,False,101,0.0-111.0,0,829,[2],stimuli/2001101.jpg,167763,prediction_trial,136,image-keyboard-response,
204,Experiment 3,True,1,True,True,011,0,0,True,True,True,True,001,0.0-113.0,0,617,[0],stimuli/0011001.jpg,168978,prediction_trial,138,image-keyboard-response,
204,Experiment 3,True,1,True,True,100,1,1,True,True,True,True,100,0.0-115.0,1,613,[1],stimuli/1100100.jpg,170218,prediction_trial,140,image-keyboard-response,
204,Experiment 3,True,1,False,False,111,2,2,False,False,False,False,111,0.0-117.0,2,628,[2],stimuli/2111111.jpg,171393,prediction_trial,142,image-keyboard-response,
204,Experiment 3,False,0,True,True,101,1,1,False,False,False,False,110,0.0-119.0,0,1203,[1],stimuli/1101110.jpg,173279,prediction_trial,144,image-keyboard-response,
204,Experiment 3,False,0,True,True,000,2,2,False,False,False,False,011,0.0-121.0,1,993,[2],stimuli/2000011.jpg,175102,prediction_trial,146,image-keyboard-response,
204,Experiment 3,True,1,True,True,110,2,2,True,True,True,True,100,0.0-123.0,2,619,[2],stimuli/2110100.jpg,176251,prediction_trial,148,image-keyboard-response,
204,Experiment 3,True,1,True,True,010,2,2,True,True,True,True,110,0.0-125.0,2,585,[2],stimuli/2010110.jpg,177347,prediction_trial,150,image-keyboard-response,
204,Experiment 3,True,1,True,True,110,2,2,False,False,False,False,011,0.0-127.0,2,1268,[2],stimuli/2110011.jpg,179163,prediction_trial,152,image-keyboard-response,
204,Experiment 3,False,0,False,False,101,0,0,False,False,False,False,111,0.0-129.0,1,1540,[0],stimuli/0101111.jpg,181339,prediction_trial,154,image-keyboard-response,
204,Experiment 3,True,1,True,True,000,0,0,True,True,True,True,010,0.0-131.0,0,590,[0],stimuli/0000010.jpg,182480,prediction_trial,156,image-keyboard-response,
204,Experiment 3,True,1,False,False,111,2,2,False,False,True,True,010,0.0-133.0,2,514,[2],stimuli/2111010.jpg,183419,prediction_trial,158,image-keyboard-response,
204,Experiment 3,True,1,False,False,111,0,0,False,False,False,True,100,0.0-135.0,0,738,[0],stimuli/0111100.jpg,184691,prediction_trial,160,image-keyboard-response,
204,Experiment 3,False,0,True,True,100,1,1,False,False,False,False,111,0.0-137.0,2,808,[1],stimuli/1100111.jpg,186538,prediction_trial,162,image-keyboard-response,
204,Experiment 3,True,1,False,False,101,2,2,False,False,True,True,110,0.0-139.0,2,701,[2],stimuli/2101110.jpg,187903,prediction_trial,164,image-keyboard-response,
204,Experiment 3,False,0,True,True,100,2,2,False,False,False,False,011,0.0-141.0,1,823,[2],stimuli/2100011.jpg,189300,prediction_trial,166,image-keyboard-response,
204,Experiment 3,True,1,True,True,101,1,1,True,True,True,True,001,0.0-143.0,1,574,[1],stimuli/1101001.jpg,190372,prediction_trial,168,image-keyboard-response,
204,Experiment 3,False,0,False,False,111,1,1,False,False,False,False,111,0.0-145.0,2,625,[1],stimuli/1111111.jpg,191549,prediction_trial,170,image-keyboard-response,
204,Experiment 3,True,1,False,True,100,0,0,False,False,False,False,111,0.0-147.0,0,642,[0],stimuli/0100111.jpg,192759,prediction_trial,172,image-keyboard-response,
204,Experiment 3,True,1,False,False,101,0,0,False,False,True,True,010,0.0-149.0,0,692,[0],stimuli/0101010.jpg,194117,prediction_trial,174,image-keyboard-response,
204,Experiment 3,True,1,False,False,110,0,0,False,False,True,True,010,0.0-151.0,0,740,[0],stimuli/0110010.jpg,195452,prediction_trial,176,image-keyboard-response,
204,Experiment 3,False,0,False,True,100,0,0,False,False,False,False,101,0.0-153.0,2,787,[0],stimuli/0100101.jpg,196811,prediction_trial,178,image-keyboard-response,
204,Experiment 3,True,1,True,True,000,1,1,True,True,True,True,100,0.0-155.0,1,644,[1],stimuli/1000100.jpg,198046,prediction_trial,180,image-keyboard-response,
204,Experiment 3,False,0,False,False,110,1,1,False,False,False,False,011,0.0-157.0,2,848,[1],stimuli/1110011.jpg,199406,prediction_trial,182,image-keyboard-response,
204,Experiment 3,True,1,False,False,111,1,1,False,False,True,True,001,0.0-159.0,1,451,[1],stimuli/1111001.jpg,200373,prediction_trial,184,image-keyboard-response,
204,Experiment 3,True,1,True,True,110,2,2,True,True,True,True,010,0.0-161.0,2,571,[2],stimuli/2110010.jpg,201451,prediction_trial,186,image-keyboard-response,
204,Experiment 3,True,1,True,True,010,0,0,False,False,False,False,110,0.0-163.0,0,2838,[0],stimuli/0010110.jpg,205000,prediction_trial,188,image-keyboard-response,
204,Experiment 3,True,1,False,True,001,2,2,False,True,True,True,000,0.0-165.0,2,597,[2],stimuli/2001000.jpg,206321,prediction_trial,190,image-keyboard-response,
204,Experiment 3,True,1,False,False,011,2,2,False,False,True,True,010,0.0-167.0,2,831,[2],stimuli/2011010.jpg,207819,prediction_trial,192,image-keyboard-response,
204,Experiment 3,True,1,False,False,111,1,1,False,False,False,True,010,0.0-169.0,1,1320,[1],stimuli/1111010.jpg,209808,prediction_trial,194,image-keyboard-response,
204,Experiment 3,True,1,True,True,010,0,0,True,True,True,True,001,0.0-171.0,0,644,[0],stimuli/0010001.jpg,211108,prediction_trial,196,image-keyboard-response,
204,Experiment 3,True,1,False,True,010,1,1,False,False,False,False,110,0.0-173.0,1,1058,[1],stimuli/1010110.jpg,213344,prediction_trial,198,image-keyboard-response,
204,Experiment 3,True,1,True,True,010,2,2,False,True,False,True,001,0.0-175.0,2,624,[2],stimuli/2010001.jpg,214605,prediction_trial,200,image-keyboard-response,
204,Experiment 3,True,1,False,False,101,0,0,False,False,True,True,001,0.0-177.0,0,544,[0],stimuli/0101001.jpg,215624,prediction_trial,202,image-keyboard-response,
204,Experiment 3,True,1,True,True,000,2,2,True,True,True,True,110,0.0-179.0,2,559,[2],stimuli/2000110.jpg,216692,prediction_trial,204,image-keyboard-response,
204,Experiment 3,True,1,False,True,010,1,1,False,True,True,True,001,0.0-181.0,1,657,[1],stimuli/1010001.jpg,218016,prediction_trial,206,image-keyboard-response,
204,Experiment 3,True,1,False,False,011,2,2,False,False,True,True,100,0.0-183.0,2,498,[2],stimuli/2011100.jpg,219007,prediction_trial,208,image-keyboard-response,
204,Experiment 3,True,1,True,True,000,0,0,True,True,True,True,000,0.0-185.0,0,561,[0],stimuli/0000000.jpg,220098,prediction_trial,210,image-keyboard-response,
204,Experiment 3,False,0,False,False,101,0,0,False,False,False,False,110,0.0-187.0,1,784,[0],stimuli/0101110.jpg,221376,prediction_trial,212,image-keyboard-response,
204,Experiment 3,False,0,False,False,110,1,1,False,False,False,False,110,0.0-189.0,0,565,[1],stimuli/1110110.jpg,222379,prediction_trial,214,image-keyboard-response,
204,Experiment 3,False,0,True,True,001,0,0,False,False,False,False,101,0.0-191.0,2,834,[0],stimuli/0001101.jpg,223696,prediction_trial,216,image-keyboard-response,
204,Experiment 3,True,1,False,False,101,2,2,False,False,True,True,000,0.0-193.0,2,638,[2],stimuli/2101000.jpg,224880,prediction_trial,218,image-keyboard-response,
204,Experiment 3,False,0,False,False,110,0,0,False,False,False,False,111,0.0-195.0,1,651,[0],stimuli/0110111.jpg,225996,prediction_trial,220,image-keyboard-response,
204,Experiment 3,True,1,True,True,100,2,2,True,True,True,True,100,0.0-197.0,2,532,[2],stimuli/2100100.jpg,227081,prediction_trial,222,image-keyboard-response,
204,Experiment 3,True,1,False,False,011,2,2,False,False,True,True,110,0.0-199.0,2,569,[2],stimuli/2011110.jpg,228097,prediction_trial,224,image-keyboard-response,
204,Experiment 3,False,0,False,False,011,2,2,False,False,False,False,101,0.0-201.0,0,534,[2],stimuli/2011101.jpg,229130,prediction_trial,226,image-keyboard-response,
204,Experiment 3,False,0,False,False,101,2,2,False,False,False,False,011,0.0-203.0,1,557,[2],stimuli/2101011.jpg,230213,prediction_trial,228,image-keyboard-response,
204,Experiment 3,True,1,False,False,011,1,1,False,False,True,True,001,0.0-205.0,1,513,[1],stimuli/1011001.jpg,231268,prediction_trial,230,image-keyboard-response,
204,Experiment 3,True,1,True,True,001,1,1,True,True,True,True,000,0.0-207.0,1,504,[1],stimuli/1001000.jpg,232262,prediction_trial,232,image-keyboard-response,
204,Experiment 3,True,1,False,False,111,1,1,False,False,True,True,000,0.0-209.0,1,520,[1],stimuli/1111000.jpg,233251,prediction_trial,234,image-keyboard-response,
204,Experiment 3,True,1,False,False,011,1,1,False,False,True,True,100,0.0-211.0,1,571,[1],stimuli/1011100.jpg,234261,prediction_trial,236,image-keyboard-response,
204,Experiment 3,False,0,True,True,011,0,0,False,False,False,False,101,0.0-213.0,2,635,[0],stimuli/0011101.jpg,235578,prediction_trial,238,image-keyboard-response,
204,Experiment 3,False,0,True,True,010,2,2,False,False,False,False,111,0.0-215.0,0,872,[2],stimuli/2010111.jpg,237016,prediction_trial,240,image-keyboard-response,
204,Experiment 3,True,1,False,False,111,0,0,False,False,True,True,010,0.0-217.0,0,600,[0],stimuli/0111010.jpg,238501,prediction_trial,242,image-keyboard-response,
204,Experiment 3,True,1,True,True,000,1,1,True,True,True,True,101,0.0-219.0,1,520,[1],stimuli/1000101.jpg,239447,prediction_trial,244,image-keyboard-response,
204,Experiment 3,True,1,False,False,111,2,2,False,False,False,True,001,0.0-221.0,2,622,[2],stimuli/2111001.jpg,240473,prediction_trial,246,image-keyboard-response,
204,Experiment 3,True,1,True,True,010,0,0,False,True,False,True,100,0.0-223.0,0,588,[0],stimuli/0010100.jpg,241648,prediction_trial,248,image-keyboard-response,
204,Experiment 3,True,1,False,False,111,1,1,False,False,False,False,110,0.0-225.0,1,654,[1],stimuli/1111110.jpg,242831,prediction_trial,250,image-keyboard-response,
204,Experiment 3,True,1,True,True,001,1,1,True,True,True,True,100,0.0-227.0,1,513,[1],stimuli/1001100.jpg,243971,prediction_trial,252,image-keyboard-response,
204,Experiment 3,True,1,False,False,110,0,0,False,False,True,True,001,0.0-229.0,0,523,[0],stimuli/0110001.jpg,244934,prediction_trial,254,image-keyboard-response,
204,Experiment 3,True,1,True,True,000,2,2,False,True,False,True,001,0.0-231.0,2,568,[2],stimuli/2000001.jpg,245977,prediction_trial,256,image-keyboard-response,
204,Experiment 3,True,1,False,False,110,1,1,False,False,True,True,101,0.0-233.0,1,522,[1],stimuli/1110101.jpg,247022,prediction_trial,258,image-keyboard-response,
204,Experiment 3,True,1,False,False,111,2,2,False,False,True,True,100,0.0-235.0,2,517,[2],stimuli/2111100.jpg,247922,prediction_trial,260,image-keyboard-response,
204,Experiment 3,True,1,False,False,111,0,0,False,False,True,True,001,0.0-237.0,0,518,[0],stimuli/0111001.jpg,248960,prediction_trial,262,image-keyboard-response,
204,Experiment 3,True,1,False,False,011,1,1,False,False,True,True,000,0.0-239.0,1,440,[1],stimuli/1011000.jpg,249819,prediction_trial,264,image-keyboard-response,
204,Experiment 3,True,1,True,True,001,0,0,True,True,True,True,001,0.0-241.0,0,577,[0],stimuli/0001001.jpg,251259,prediction_trial,266,image-keyboard-response,
204,Experiment 3,True,1,True,True,101,1,1,True,True,True,True,000,0.0-243.0,1,496,[1],stimuli/1101000.jpg,252113,prediction_trial,268,image-keyboard-response,
204,Experiment 3,True,1,True,True,000,1,1,True,True,True,True,001,0.0-245.0,1,503,[1],stimuli/1000001.jpg,253101,prediction_trial,270,image-keyboard-response,
204,Experiment 3,True,1,False,True,100,0,0,False,True,True,True,011,0.0-247.0,0,519,[0],stimuli/0100011.jpg,254149,prediction_trial,272,image-keyboard-response,
204,Experiment 3,False,0,False,True,010,1,1,False,False,False,False,011,0.0-249.0,2,608,[1],stimuli/1010011.jpg,255149,prediction_trial,274,image-keyboard-response,
204,Experiment 3,True,1,False,False,011,2,2,False,False,True,True,000,0.0-251.0,2,577,[2],stimuli/2011000.jpg,256323,prediction_trial,276,image-keyboard-response,
204,Experiment 3,True,1,True,True,100,2,2,True,True,True,True,110,0.0-253.0,2,607,[2],stimuli/2100110.jpg,257421,prediction_trial,278,image-keyboard-response,
204,Experiment 3,True,1,True,True,000,0,0,False,True,False,True,100,0.0-255.0,0,529,[0],stimuli/0000100.jpg,258372,prediction_trial,280,image-keyboard-response,
204,Experiment 3,True,1,True,True,001,1,1,True,True,True,True,101,0.0-257.0,1,502,[1],stimuli/1001101.jpg,259470,prediction_trial,282,image-keyboard-response,
204,Experiment 3,True,1,True,True,000,2,2,False,False,False,False,101,0.0-259.0,2,635,[2],stimuli/2000101.jpg,260586,prediction_trial,284,image-keyboard-response,
204,Experiment 3,True,1,True,True,001,0,0,True,True,True,True,010,0.0-261.0,0,552,[0],stimuli/0001010.jpg,261733,prediction_trial,286,image-keyboard-response,
204,Experiment 3,True,1,False,True,100,0,0,False,True,True,True,010,0.0-263.0,0,709,[0],stimuli/0100010.jpg,262962,prediction_trial,288,image-keyboard-response,
204,Experiment 3,True,1,True,True,000,1,1,False,False,False,False,110,0.0-265.0,1,762,[1],stimuli/1000110.jpg,264190,prediction_trial,290,image-keyboard-response,
204,Experiment 3,False,0,False,False,111,1,1,False,False,False,False,011,0.0-267.0,2,1298,[1],stimuli/1111011.jpg,265910,prediction_trial,292,image-keyboard-response,
204,Experiment 3,True,1,True,True,000,1,1,False,False,False,False,111,0.0-269.0,1,711,[1],stimuli/1000111.jpg,267198,prediction_trial,294,image-keyboard-response,
204,Experiment 3,False,0,False,True,010,1,1,False,False,False,False,111,0.0-271.0,2,1367,[1],stimuli/1010111.jpg,269129,prediction_trial,296,image-keyboard-response,
204,Experiment 3,False,0,False,False,111,0,0,False,False,False,False,110,0.0-273.0,1,1635,[0],stimuli/0111110.jpg,271709,prediction_trial,298,image-keyboard-response,
204,Experiment 3,True,1,False,False,110,0,0,False,False,True,True,011,0.0-275.0,0,656,[0],stimuli/0110011.jpg,273184,prediction_trial,300,image-keyboard-response,
204,Experiment 3,False,0,True,True,010,0,0,False,False,False,False,111,0.0-277.0,1,1034,[0],stimuli/0010111.jpg,274745,prediction_trial,302,image-keyboard-response,
204,Experiment 3,True,1,False,False,111,0,0,False,False,True,True,011,0.0-279.0,0,553,[0],stimuli/0111011.jpg,275883,prediction_trial,304,image-keyboard-response,
204,Experiment 3,True,1,True,True,000,1,1,True,True,True,True,000,0.0-281.0,1,632,[1],stimuli/1000000.jpg,277047,prediction_trial,306,image-keyboard-response,
204,Experiment 3,True,1,True,True,100,2,2,False,True,False,True,001,0.0-283.0,2,753,[2],stimuli/2100001.jpg,278168,prediction_trial,308,image-keyboard-response,
204,Experiment 3,True,1,False,True,100,0,0,False,True,True,True,001,0.0-285.0,0,505,[0],stimuli/0100001.jpg,279088,prediction_trial,310,image-keyboard-response,
204,Experiment 3,True,1,True,True,000,1,1,False,True,False,True,010,0.0-287.0,1,565,[1],stimuli/1000010.jpg,280085,prediction_trial,312,image-keyboard-response,
204,Experiment 3,True,1,True,True,110,2,2,False,False,False,False,101,0.0-289.0,2,671,[2],stimuli/2110101.jpg,281326,prediction_trial,314,image-keyboard-response,
204,Experiment 3,False,0,False,False,111,2,2,False,False,False,False,101,0.0-291.0,0,1280,[2],stimuli/2111101.jpg,283226,prediction_trial,316,image-keyboard-response,
192,Experiment 3,False,0,False,True,100,0,0,False,False,False,False,101,0.0-5.0,2,3981,[0],stimuli/0100101.jpg,989304,prediction_trial,30,image-keyboard-response,
192,Experiment 3,True,1,True,True,100,2,2,True,True,True,True,100,0.0-7.0,2,2364,[2],stimuli/2100100.jpg,993041,prediction_trial,32,image-keyboard-response,
192,Experiment 3,True,1,False,False,111,1,1,False,False,True,True,100,0.0-9.0,1,4449,[1],stimuli/1111100.jpg,998241,prediction_trial,34,image-keyboard-response,
192,Experiment 3,True,1,True,True,101,1,1,False,True,False,True,010,0.0-11.0,1,1821,[1],stimuli/1101010.jpg,1002633,prediction_trial,36,image-keyboard-response,
192,Experiment 3,True,1,False,False,111,2,2,False,False,True,True,000,0.0-13.0,2,1655,[2],stimuli/2111000.jpg,1004809,prediction_trial,38,image-keyboard-response,
192,Experiment 3,True,1,True,True,101,1,1,True,True,True,True,000,0.0-15.0,1,2910,[1],stimuli/1101000.jpg,1008241,prediction_trial,40,image-keyboard-response,
192,Experiment 3,True,1,True,True,000,0,0,False,False,False,False,111,0.0-17.0,0,2758,[0],stimuli/0000111.jpg,1011481,prediction_trial,42,image-keyboard-response,
192,Experiment 3,True,1,False,True,010,1,1,False,True,True,True,101,0.0-19.0,1,1734,[1],stimuli/1010101.jpg,1013721,prediction_trial,44,image-keyboard-response,
192,Experiment 3,False,0,True,True,101,1,1,False,False,False,False,110,0.0-21.0,0,6047,[1],stimuli/1101110.jpg,1020241,prediction_trial,46,image-keyboard-response,
192,Experiment 3,True,1,False,False,101,0,0,False,False,True,True,010,0.0-23.0,0,1294,[0],stimuli/0101010.jpg,1022657,prediction_trial,48,image-keyboard-response,
192,Experiment 3,True,1,False,False,101,2,2,False,False,True,True,000,0.0-25.0,2,1408,[2],stimuli/2101000.jpg,1024449,prediction_trial,50,image-keyboard-response,
192,Experiment 3,True,1,True,True,110,2,2,True,True,True,True,110,0.0-27.0,2,2318,[2],stimuli/2110110.jpg,1027529,prediction_trial,52,image-keyboard-response,
192,Experiment 3,True,1,False,False,111,2,2,False,False,False,False,101,0.0-29.0,2,2039,[2],stimuli/2111101.jpg,1029977,prediction_trial,54,image-keyboard-response,
192,Experiment 3,False,0,True,True,000,0,0,False,False,False,False,101,0.0-31.0,2,5808,[0],stimuli/0000101.jpg,1036209,prediction_trial,56,image-keyboard-response,
192,Experiment 3,True,1,True,True,100,1,1,True,True,True,True,101,0.0-33.0,1,1328,[1],stimuli/1100101.jpg,1038129,prediction_trial,58,image-keyboard-response,
192,Experiment 3,True,1,True,True,001,0,0,True,True,True,True,000,0.0-35.0,0,1616,[0],stimuli/0001000.jpg,1040161,prediction_trial,60,image-keyboard-response,
192,Experiment 3,False,0,True,True,001,1,1,False,False,False,False,011,0.0-37.0,2,5656,[1],stimuli/1001011.jpg,1046185,prediction_trial,62,image-keyboard-response,
192,Experiment 3,True,1,False,True,010,1,1,False,True,False,True,010,0.0-39.0,1,2499,[1],stimuli/1010010.jpg,1049264,prediction_trial,64,image-keyboard-response,
192,Experiment 3,True,1,False,False,101,2,2,False,False,True,True,100,0.0-41.0,2,1831,[2],stimuli/2101100.jpg,1051528,prediction_trial,66,image-keyboard-response,
192,Experiment 3,False,0,True,True,011,0,0,False,False,False,False,110,0.0-43.0,1,4272,[0],stimuli/0011110.jpg,1056193,prediction_trial,68,image-keyboard-response,
192,Experiment 3,True,1,True,True,110,2,2,True,True,True,True,000,0.0-45.0,2,1736,[2],stimuli/2110000.jpg,1058672,prediction_trial,70,image-keyboard-response,
192,Experiment 3,True,1,True,True,101,1,1,True,True,True,True,100,0.0-47.0,1,1257,[1],stimuli/1101100.jpg,1060584,prediction_trial,72,image-keyboard-response,
192,Experiment 3,True,1,False,True,001,2,2,False,True,True,True,000,0.0-49.0,2,2551,[2],stimuli/2001000.jpg,1063577,prediction_trial,74,image-keyboard-response,
192,Experiment 3,True,1,False,False,011,1,1,False,False,False,True,010,0.0-51.0,1,2204,[1],stimuli/1011010.jpg,1066290,prediction_trial,76,image-keyboard-response,
192,Experiment 3,True,1,True,True,000,0,0,False,False,False,False,110,0.0-53.0,0,4629,[0],stimuli/0000110.jpg,1071313,prediction_trial,78,image-keyboard-response,
192,Experiment 3,True,1,True,True,010,2,2,True,True,True,True,110,0.0-55.0,2,1219,[2],stimuli/2010110.jpg,1072858,prediction_trial,80,image-keyboard-response,
192,Experiment 3,True,1,True,True,100,1,1,True,True,True,True,001,0.0-57.0,1,941,[1],stimuli/1100001.jpg,1074113,prediction_trial,82,image-keyboard-response,
192,Experiment 3,True,1,False,False,110,0,0,False,False,True,True,011,0.0-59.0,0,1239,[0],stimuli/0110011.jpg,1075673,prediction_trial,84,image-keyboard-response,
192,Experiment 3,True,1,False,False,011,2,2,False,False,True,True,010,0.0-61.0,2,1240,[2],stimuli/2011010.jpg,1077233,prediction_trial,86,image-keyboard-response,
192,Experiment 3,True,1,False,False,110,0,0,False,False,True,True,000,0.0-63.0,0,1248,[0],stimuli/0110000.jpg,1078785,prediction_trial,88,image-keyboard-response,
192,Experiment 3,True,1,False,True,100,0,0,False,True,True,True,011,0.0-65.0,0,1799,[0],stimuli/0100011.jpg,1080873,prediction_trial,90,image-keyboard-response,
192,Experiment 3,True,1,False,True,100,0,0,False,True,True,True,000,0.0-67.0,0,1314,[0],stimuli/0100000.jpg,1082467,prediction_trial,92,image-keyboard-response,
192,Experiment 3,True,1,True,True,000,0,0,True,True,True,True,001,0.0-69.0,0,1224,[0],stimuli/0000001.jpg,1083985,prediction_trial,94,image-keyboard-response,
192,Experiment 3,False,0,False,False,101,2,2,False,False,False,False,111,0.0-71.0,1,2736,[2],stimuli/2101111.jpg,1087033,prediction_trial,96,image-keyboard-response,
192,Experiment 3,True,1,True,True,001,1,1,False,False,False,False,110,0.0-73.0,1,1982,[1],stimuli/1001110.jpg,1089329,prediction_trial,98,image-keyboard-response,
192,Experiment 3,True,1,True,True,011,0,0,True,True,True,True,000,0.0-75.0,0,1023,[0],stimuli/0011000.jpg,1090609,prediction_trial,100,image-keyboard-response,
192,Experiment 3,True,1,True,True,000,2,2,True,True,True,True,010,0.0-77.0,2,928,[2],stimuli/2000010.jpg,1091849,prediction_trial,102,image-keyboard-response,
192,Experiment 3,True,1,True,True,000,2,2,True,True,True,True,110,0.0-79.0,2,1089,[2],stimuli/2000110.jpg,1093217,prediction_trial,104,image-keyboard-response,
192,Experiment 3,False,0,False,False,011,2,2,False,False,False,False,111,0.0-81.0,0,1470,[2],stimuli/2011111.jpg,1094977,prediction_trial,106,image-keyboard-response,
192,Experiment 3,True,1,True,True,100,2,2,True,True,True,True,010,0.0-83.0,2,1192,[2],stimuli/2100010.jpg,1096609,prediction_trial,108,image-keyboard-response,
192,Experiment 3,True,1,False,False,101,2,2,False,False,True,True,110,0.0-85.0,2,950,[2],stimuli/2101110.jpg,1097817,prediction_trial,110,image-keyboard-response,
192,Experiment 3,True,1,False,True,001,2,2,False,True,True,True,010,0.0-87.0,2,704,[2],stimuli/2001010.jpg,1098784,prediction_trial,112,image-keyboard-response,
192,Experiment 3,True,1,False,False,011,2,2,False,False,False,False,011,0.0-89.0,2,2070,[2],stimuli/2011011.jpg,1101145,prediction_trial,114,image-keyboard-response,
192,Experiment 3,True,1,False,False,111,2,2,False,False,False,True,001,0.0-91.0,2,1815,[2],stimuli/2111001.jpg,1103242,prediction_trial,116,image-keyboard-response,
192,Experiment 3,False,0,False,True,100,0,0,False,False,False,False,111,0.0-93.0,2,5773,[0],stimuli/0100111.jpg,1109297,prediction_trial,118,image-keyboard-response,
192,Experiment 3,True,1,False,False,110,0,0,False,False,False,False,111,0.0-95.0,0,2558,[0],stimuli/0110111.jpg,1112169,prediction_trial,120,image-keyboard-response,
192,Experiment 3,True,1,False,False,101,2,2,False,False,True,True,010,0.0-97.0,2,1591,[2],stimuli/2101010.jpg,1114017,prediction_trial,122,image-keyboard-response,
192,Experiment 3,True,1,False,False,011,1,1,False,False,False,False,110,0.0-99.0,1,6161,[1],stimuli/1011110.jpg,1120473,prediction_trial,124,image-keyboard-response,
192,Experiment 3,True,1,False,True,001,2,2,False,True,True,True,110,0.0-101.0,2,1031,[2],stimuli/2001110.jpg,1121969,prediction_trial,126,image-keyboard-response,
192,Experiment 3,True,1,False,False,111,0,0,False,False,True,True,010,0.0-103.0,0,1149,[0],stimuli/0111010.jpg,1123425,prediction_trial,128,image-keyboard-response,
192,Experiment 3,True,1,True,True,000,1,1,True,True,True,True,100,0.0-105.0,1,1374,[1],stimuli/1000100.jpg,1125161,prediction_trial,130,image-keyboard-response,
192,Experiment 3,True,1,False,False,101,0,0,False,False,False,False,110,0.0-107.0,0,1792,[0],stimuli/0101110.jpg,1127376,prediction_trial,132,image-keyboard-response,
192,Experiment 3,False,0,True,True,110,2,2,False,False,False,False,101,0.0-109.0,0,1718,[2],stimuli/2110101.jpg,1129409,prediction_trial,134,image-keyboard-response,
192,Experiment 3,True,1,False,False,101,0,0,False,False,False,False,101,0.0-111.0,0,1791,[0],stimuli/0101101.jpg,1131481,prediction_trial,136,image-keyboard-response,
192,Experiment 3,True,1,False,False,110,1,1,False,False,True,True,000,0.0-113.0,1,976,[1],stimuli/1110000.jpg,1132745,prediction_trial,138,image-keyboard-response,
192,Experiment 3,True,1,True,True,010,0,0,True,True,True,True,000,0.0-115.0,0,808,[0],stimuli/0010000.jpg,1133881,prediction_trial,140,image-keyboard-response,
192,Experiment 3,True,1,False,False,110,1,1,False,False,False,False,111,0.0-117.0,1,2007,[1],stimuli/1110111.jpg,1136201,prediction_trial,142,image-keyboard-response,
192,Experiment 3,False,0,True,True,101,1,1,False,False,False,False,111,0.0-119.0,2,2857,[1],stimuli/1101111.jpg,1139353,prediction_trial,144,image-keyboard-response,
192,Experiment 3,True,1,True,True,010,2,2,True,True,True,True,100,0.0-121.0,2,1039,[2],stimuli/2010100.jpg,1140633,prediction_trial,146,image-keyboard-response,
192,Experiment 3,True,1,False,False,111,1,1,False,False,False,True,010,0.0-123.0,1,1744,[1],stimuli/1111010.jpg,1142650,prediction_trial,148,image-keyboard-response,
192,Experiment 3,True,1,False,True,100,0,0,False,True,False,True,100,0.0-125.0,0,1957,[0],stimuli/0100100.jpg,1144889,prediction_trial,150,image-keyboard-response,
192,Experiment 3,True,1,False,False,011,1,1,False,False,True,True,001,0.0-127.0,1,1189,[1],stimuli/1011001.jpg,1146393,prediction_trial,152,image-keyboard-response,
192,Experiment 3,False,0,True,True,110,2,2,False,False,False,False,011,0.0-129.0,1,3184,[2],stimuli/2110011.jpg,1149873,prediction_trial,154,image-keyboard-response,
192,Experiment 3,True,1,False,False,110,0,0,False,False,True,True,010,0.0-131.0,0,1064,[0],stimuli/0110010.jpg,1151225,prediction_trial,156,image-keyboard-response,
192,Experiment 3,True,1,False,False,111,0,0,False,False,True,True,011,0.0-133.0,0,1175,[0],stimuli/0111011.jpg,1152625,prediction_trial,158,image-keyboard-response,
192,Experiment 3,True,1,True,True,001,0,0,False,True,False,True,100,0.0-135.0,0,1976,[0],stimuli/0001100.jpg,1154929,prediction_trial,160,image-keyboard-response,
192,Experiment 3,True,1,True,True,010,0,0,False,True,False,True,100,0.0-137.0,0,1473,[0],stimuli/0010100.jpg,1156737,prediction_trial,162,image-keyboard-response,
192,Experiment 3,True,1,False,False,111,1,1,False,False,True,True,101,0.0-139.0,1,1009,[1],stimuli/1111101.jpg,1158049,prediction_trial,164,image-keyboard-response,
192,Experiment 3,True,1,True,True,000,0,0,False,True,False,True,100,0.0-141.0,0,1481,[0],stimuli/0000100.jpg,1159842,prediction_trial,166,image-keyboard-response,
192,Experiment 3,False,0,False,False,011,2,2,False,False,False,False,101,0.0-143.0,0,4774,[2],stimuli/2011101.jpg,1164906,prediction_trial,168,image-keyboard-response,
192,Experiment 3,True,1,False,True,010,1,1,False,True,True,True,100,0.0-145.0,1,1342,[1],stimuli/1010100.jpg,1166562,prediction_trial,170,image-keyboard-response,
192,Experiment 3,True,1,False,False,101,2,2,False,False,False,True,001,0.0-147.0,2,1407,[2],stimuli/2101001.jpg,1168241,prediction_trial,172,image-keyboard-response,
192,Experiment 3,True,1,True,True,001,1,1,False,False,False,False,111,0.0-149.0,1,3689,[1],stimuli/1001111.jpg,1172217,prediction_trial,174,image-keyboard-response,
192,Experiment 3,True,1,True,True,000,2,2,False,False,False,False,101,0.0-151.0,2,3880,[2],stimuli/2000101.jpg,1176401,prediction_trial,176,image-keyboard-response,
192,Experiment 3,True,1,False,False,111,2,2,False,False,False,False,111,0.0-153.0,2,2287,[2],stimuli/2111111.jpg,1178961,prediction_trial,178,image-keyboard-response,
192,Experiment 3,True,1,True,True,100,2,2,True,True,True,True,000,0.0-155.0,2,1092,[2],stimuli/2100000.jpg,1180305,prediction_trial,180,image-keyboard-response,
192,Experiment 3,False,0,True,True,100,1,1,False,False,False,False,011,0.0-157.0,2,1544,[1],stimuli/1100011.jpg,1182161,prediction_trial,182,image-keyboard-response,
192,Experiment 3,True,1,True,True,000,1,1,True,True,True,True,101,0.0-159.0,1,897,[1],stimuli/1000101.jpg,1183321,prediction_trial,184,image-keyboard-response,
192,Experiment 3,False,0,True,True,010,2,2,False,False,False,False,111,0.0-161.0,0,4327,[2],stimuli/2010111.jpg,1187929,prediction_trial,186,image-keyboard-response,
192,Experiment 3,True,1,True,True,010,0,0,False,False,False,False,101,0.0-163.0,0,2505,[0],stimuli/0010101.jpg,1190753,prediction_trial,188,image-keyboard-response,
192,Experiment 3,True,1,True,True,001,1,1,True,True,True,True,101,0.0-165.0,1,1176,[1],stimuli/1001101.jpg,1192209,prediction_trial,190,image-keyboard-response,
192,Experiment 3,True,1,True,True,010,2,2,True,True,True,True,000,0.0-167.0,2,736,[2],stimuli/2010000.jpg,1193265,prediction_trial,192,image-keyboard-response,
192,Experiment 3,False,0,True,True,001,0,0,False,False,False,False,101,0.0-169.0,2,2142,[0],stimuli/0001101.jpg,1195722,prediction_trial,194,image-keyboard-response,
192,Experiment 3,True,1,True,True,000,0,0,True,True,True,True,010,0.0-171.0,0,992,[0],stimuli/0000010.jpg,1197058,prediction_trial,196,image-keyboard-response,
192,Experiment 3,False,0,False,True,100,0,0,False,False,False,False,110,0.0-173.0,2,4184,[0],stimuli/0100110.jpg,1201529,prediction_trial,198,image-keyboard-response,
192,Experiment 3,True,1,False,False,011,2,2,False,False,True,True,110,0.0-175.0,2,1200,[2],stimuli/2011110.jpg,1203721,prediction_trial,200,image-keyboard-response,
192,Experiment 3,True,1,True,True,100,2,2,False,True,False,True,001,0.0-177.0,2,2019,[2],stimuli/2100001.jpg,1206506,prediction_trial,202,image-keyboard-response,
192,Experiment 3,True,1,True,True,001,1,1,True,True,True,True,100,0.0-179.0,1,839,[1],stimuli/1001100.jpg,1207650,prediction_trial,204,image-keyboard-response,
192,Experiment 3,True,1,True,True,000,2,2,False,True,False,True,001,0.0-181.0,2,1096,[2],stimuli/2000001.jpg,1209050,prediction_trial,206,image-keyboard-response,
192,Experiment 3,True,1,True,True,000,2,2,True,True,True,True,000,0.0-183.0,2,834,[2],stimuli/2000000.jpg,1210210,prediction_trial,208,image-keyboard-response,
192,Experiment 3,True,1,True,True,000,0,0,True,True,True,True,011,0.0-185.0,0,950,[0],stimuli/0000011.jpg,1211489,prediction_trial,210,image-keyboard-response,
192,Experiment 3,True,1,True,True,010,2,2,False,True,False,True,001,0.0-187.0,2,1279,[2],stimuli/2010001.jpg,1213033,prediction_trial,212,image-keyboard-response,
192,Experiment 3,False,0,True,True,101,1,1,False,False,False,False,011,0.0-189.0,2,4096,[1],stimuli/1101011.jpg,1217513,prediction_trial,214,image-keyboard-response,
192,Experiment 3,True,1,True,True,011,0,0,True,True,True,True,011,0.0-191.0,0,1224,[0],stimuli/0011011.jpg,1220409,prediction_trial,216,image-keyboard-response,
192,Experiment 3,True,1,False,False,101,0,0,False,False,False,True,100,0.0-193.0,0,2181,[0],stimuli/0101100.jpg,1222921,prediction_trial,218,image-keyboard-response,
192,Experiment 3,True,1,False,False,111,0,0,False,False,True,True,000,0.0-195.0,0,1409,[0],stimuli/0111000.jpg,1224634,prediction_trial,220,image-keyboard-response,
192,Experiment 3,True,1,True,True,100,2,2,False,False,False,False,011,0.0-197.0,2,4375,[2],stimuli/2100011.jpg,1229314,prediction_trial,222,image-keyboard-response,
192,Experiment 3,True,1,True,True,010,2,2,False,False,False,False,011,0.0-199.0,2,5030,[2],stimuli/2010011.jpg,1234705,prediction_trial,224,image-keyboard-response,
192,Experiment 3,True,1,True,True,110,2,2,False,True,False,True,001,0.0-201.0,2,2472,[2],stimuli/2110001.jpg,1237457,prediction_trial,226,image-keyboard-response,
192,Experiment 3,True,1,True,True,010,0,0,False,False,False,False,110,0.0-203.0,0,3944,[0],stimuli/0010110.jpg,1241753,prediction_trial,228,image-keyboard-response,
192,Experiment 3,True,1,False,True,100,0,0,False,True,True,True,001,0.0-205.0,0,975,[0],stimuli/0100001.jpg,1243041,prediction_trial,230,image-keyboard-response,
192,Experiment 3,True,1,False,False,011,1,1,False,False,True,True,100,0.0-207.0,1,2722,[1],stimuli/1011100.jpg,1246074,prediction_trial,232,image-keyboard-response,
192,Experiment 3,True,1,True,True,001,1,1,False,True,False,True,010,0.0-209.0,1,2845,[1],stimuli/1001010.jpg,1249425,prediction_trial,234,image-keyboard-response,
192,Experiment 3,True,1,False,True,001,2,2,False,True,False,True,001,0.0-211.0,2,1520,[2],stimuli/2001001.jpg,1251330,prediction_trial,236,image-keyboard-response,
192,Experiment 3,True,1,False,False,011,2,2,False,False,True,True,000,0.0-213.0,2,919,[2],stimuli/2011000.jpg,1252529,prediction_trial,238,image-keyboard-response,
192,Experiment 3,True,1,True,True,001,1,1,True,True,True,True,001,0.0-215.0,1,966,[1],stimuli/1001001.jpg,1253761,prediction_trial,240,image-keyboard-response,
192,Experiment 3,False,0,False,False,110,1,1,False,False,False,False,110,0.0-217.0,0,3478,[1],stimuli/1110110.jpg,1257554,prediction_trial,242,image-keyboard-response,
192,Experiment 3,True,1,False,False,111,2,2,False,False,True,True,100,0.0-219.0,2,1092,[2],stimuli/2111100.jpg,1259329,prediction_trial,244,image-keyboard-response,
192,Experiment 3,False,0,False,True,001,2,2,False,False,False,False,101,0.0-221.0,0,2714,[2],stimuli/2001101.jpg,1262370,prediction_trial,246,image-keyboard-response,
192,Experiment 3,True,1,True,True,000,0,0,True,True,True,True,000,0.0-223.0,0,896,[0],stimuli/0000000.jpg,1263546,prediction_trial,248,image-keyboard-response,
192,Experiment 3,True,1,False,True,001,2,2,False,False,False,False,111,0.0-225.0,2,1398,[2],stimuli/2001111.jpg,1265177,prediction_trial,250,image-keyboard-response,
192,Experiment 3,True,1,False,True,100,0,0,False,True,True,True,010,0.0-227.0,0,1048,[0],stimuli/0100010.jpg,1266545,prediction_trial,252,image-keyboard-response,
192,Experiment 3,False,0,False,False,110,0,0,False,False,False,False,101,0.0-229.0,2,3471,[0],stimuli/0110101.jpg,1270322,prediction_trial,254,image-keyboard-response,
192,Experiment 3,True,1,False,False,110,0,0,False,False,True,True,001,0.0-231.0,0,1062,[0],stimuli/0110001.jpg,1271723,prediction_trial,256,image-keyboard-response,
192,Experiment 3,True,1,True,True,011,0,0,True,True,True,True,001,0.0-233.0,0,1075,[0],stimuli/0011001.jpg,1273354,prediction_trial,258,image-keyboard-response,
192,Experiment 3,True,1,True,True,010,0,0,True,True,True,True,010,0.0-235.0,0,788,[0],stimuli/0010010.jpg,1274481,prediction_trial,260,image-keyboard-response,
192,Experiment 3,False,0,True,True,000,1,1,False,False,False,False,111,0.0-237.0,0,1480,[1],stimuli/1000111.jpg,1276250,prediction_trial,262,image-keyboard-response,
192,Experiment 3,True,1,True,True,101,1,1,True,True,True,True,001,0.0-239.0,1,878,[1],stimuli/1101001.jpg,1278402,prediction_trial,264,image-keyboard-response,
192,Experiment 3,True,1,False,False,110,1,1,False,False,True,True,100,0.0-241.0,1,1144,[1],stimuli/1110100.jpg,1279914,prediction_trial,266,image-keyboard-response,
192,Experiment 3,True,1,True,True,010,2,2,True,True,True,True,010,0.0-243.0,2,1048,[2],stimuli/2010010.jpg,1281265,prediction_trial,268,image-keyboard-response,
192,Experiment 3,True,1,True,True,010,0,0,True,True,True,True,001,0.0-245.0,0,823,[0],stimuli/0010001.jpg,1282385,prediction_trial,270,image-keyboard-response,
192,Experiment 3,True,1,True,True,100,1,1,False,False,False,False,110,0.0-247.0,1,2389,[1],stimuli/1100110.jpg,1285089,prediction_trial,272,image-keyboard-response,
192,Experiment 3,True,1,False,True,010,1,1,False,True,True,True,001,0.0-249.0,1,961,[1],stimuli/1010001.jpg,1286465,prediction_trial,274,image-keyboard-response,
192,Experiment 3,True,1,False,False,011,1,1,False,False,True,True,000,0.0-251.0,1,933,[1],stimuli/1011000.jpg,1287730,prediction_trial,276,image-keyboard-response,
192,Experiment 3,True,1,True,True,101,1,1,True,True,True,True,101,0.0-253.0,1,2519,[1],stimuli/1101101.jpg,1290594,prediction_trial,278,image-keyboard-response,
192,Experiment 3,True,1,False,False,101,0,0,False,False,True,True,001,0.0-255.0,0,2367,[0],stimuli/0101001.jpg,1293290,prediction_trial,280,image-keyboard-response,
192,Experiment 3,False,0,True,True,010,0,0,False,False,False,False,111,0.0-257.0,1,3022,[0],stimuli/0010111.jpg,1296706,prediction_trial,282,image-keyboard-response,
192,Experiment 3,True,1,False,False,110,0,0,False,False,False,True,100,0.0-259.0,0,2160,[0],stimuli/0110100.jpg,1299521,prediction_trial,284,image-keyboard-response,
192,Experiment 3,True,1,True,True,000,1,1,True,True,True,True,000,0.0-261.0,1,989,[1],stimuli/1000000.jpg,1300769,prediction_trial,286,image-keyboard-response,
192,Experiment 3,True,1,True,True,001,0,0,True,True,True,True,001,0.0-263.0,0,3288,[0],stimuli/0001001.jpg,1304401,prediction_trial,288,image-keyboard-response,
192,Experiment 3,False,0,False,False,111,1,1,False,False,False,False,111,0.0-265.0,0,1816,[1],stimuli/1111111.jpg,1306553,prediction_trial,290,image-keyboard-response,
192,Experiment 3,False,0,True,True,100,1,1,False,False,False,False,111,0.0-267.0,0,1230,[1],stimuli/1100111.jpg,1308265,prediction_trial,292,image-keyboard-response,
192,Experiment 3,True,1,True,True,001,0,0,False,False,False,False,111,0.0-269.0,0,3256,[0],stimuli/0001111.jpg,1311929,prediction_trial,294,image-keyboard-response,
192,Experiment 3,False,0,False,True,010,1,1,False,False,False,False,011,0.0-271.0,2,2641,[1],stimuli/1010011.jpg,1314945,prediction_trial,296,image-keyboard-response,
192,Experiment 3,True,1,True,True,100,2,2,True,True,True,True,110,0.0-273.0,2,1373,[2],stimuli/2100110.jpg,1316786,prediction_trial,298,image-keyboard-response,
192,Experiment 3,True,1,False,False,011,2,2,False,False,False,True,001,0.0-275.0,2,1248,[2],stimuli/2011001.jpg,1318737,prediction_trial,300,image-keyboard-response,
192,Experiment 3,True,1,False,False,111,2,2,False,False,True,True,110,0.0-277.0,2,839,[2],stimuli/2111110.jpg,1320330,prediction_trial,302,image-keyboard-response,
192,Experiment 3,True,1,True,True,100,1,1,False,True,False,True,010,0.0-279.0,1,2919,[1],stimuli/1100010.jpg,1323584,prediction_trial,304,image-keyboard-response,
192,Experiment 3,True,1,False,False,110,1,1,False,False,False,True,010,0.0-281.0,1,3512,[1],stimuli/1110010.jpg,1327466,prediction_trial,306,image-keyboard-response,
192,Experiment 3,True,1,False,False,111,0,0,False,False,True,True,001,0.0-283.0,0,1311,[0],stimuli/0111001.jpg,1329153,prediction_trial,308,image-keyboard-response,
192,Experiment 3,False,0,True,True,000,1,1,False,False,False,False,110,0.0-285.0,0,4783,[1],stimuli/1000110.jpg,1334497,prediction_trial,310,image-keyboard-response,
192,Experiment 3,True,1,False,False,110,1,1,False,False,True,True,001,0.0-287.0,1,1265,[1],stimuli/1110001.jpg,1337034,prediction_trial,312,image-keyboard-response,
192,Experiment 3,False,0,False,True,001,2,2,False,False,False,False,011,0.0-289.0,1,4123,[2],stimuli/2001011.jpg,1341522,prediction_trial,314,image-keyboard-response,
192,Experiment 3,True,1,True,True,110,2,2,True,True,True,True,010,0.0-291.0,2,1325,[2],stimuli/2110010.jpg,1343193,prediction_trial,316,image-keyboard-response,
182,Experiment 3,False,0,False,True,001,2,2,False,False,False,False,011,0.0-5.0,1,1975,[2],stimuli/2001011.jpg,115497,prediction_trial,30,image-keyboard-response,
182,Experiment 3,True,1,False,False,111,1,1,False,False,False,False,011,0.0-7.0,1,1086,[1],stimuli/1111011.jpg,117327,prediction_trial,32,image-keyboard-response,
182,Experiment 3,True,1,True,True,000,0,0,True,True,True,True,011,0.0-9.0,0,1023,[0],stimuli/0000011.jpg,119184,prediction_trial,34,image-keyboard-response,
182,Experiment 3,True,1,False,False,011,2,2,False,False,False,True,001,0.0-11.0,2,887,[2],stimuli/2011001.jpg,120528,prediction_trial,36,image-keyboard-response,
182,Experiment 3,True,1,True,True,001,1,1,False,True,False,True,010,0.0-13.0,1,854,[1],stimuli/1001010.jpg,121864,prediction_trial,38,image-keyboard-response,
182,Experiment 3,True,1,True,True,100,1,1,False,False,False,False,011,0.0-15.0,1,1206,[1],stimuli/1100011.jpg,123464,prediction_trial,40,image-keyboard-response,
182,Experiment 3,True,1,False,True,001,2,2,False,False,False,False,101,0.0-17.0,2,1591,[2],stimuli/2001101.jpg,125569,prediction_trial,42,image-keyboard-response,
182,Experiment 3,False,0,False,False,011,2,2,False,False,False,False,011,0.0-19.0,1,902,[2],stimuli/2011011.jpg,127256,prediction_trial,44,image-keyboard-response,
182,Experiment 3,False,0,True,True,101,1,1,False,False,False,False,110,0.0-21.0,0,2462,[1],stimuli/1101110.jpg,130265,prediction_trial,46,image-keyboard-response,
182,Experiment 3,False,0,False,False,101,0,0,False,False,False,False,111,0.0-23.0,1,1727,[0],stimuli/0101111.jpg,133232,prediction_trial,48,image-keyboard-response,
182,Experiment 3,False,0,False,False,011,1,1,False,False,False,False,110,0.0-25.0,0,2784,[1],stimuli/1011110.jpg,136753,prediction_trial,50,image-keyboard-response,
182,Experiment 3,True,1,False,True,100,0,0,False,True,True,True,011,0.0-27.0,0,1710,[0],stimuli/0100011.jpg,139160,prediction_trial,52,image-keyboard-response,
182,Experiment 3,True,1,False,False,111,1,1,False,False,True,True,101,0.0-29.0,1,767,[1],stimuli/1111101.jpg,140440,prediction_trial,54,image-keyboard-response,
182,Experiment 3,True,1,True,True,011,0,0,True,True,True,True,001,0.0-31.0,0,734,[0],stimuli/0011001.jpg,141576,prediction_trial,56,image-keyboard-response,
182,Experiment 3,True,1,True,True,010,0,0,True,True,True,True,011,0.0-33.0,0,710,[0],stimuli/0010011.jpg,142664,prediction_trial,58,image-keyboard-response,
182,Experiment 3,True,1,True,True,000,2,2,True,True,True,True,000,0.0-35.0,2,862,[2],stimuli/2000000.jpg,143896,prediction_trial,60,image-keyboard-response,
182,Experiment 3,False,0,False,False,101,2,2,False,False,False,False,011,0.0-37.0,1,2814,[2],stimuli/2101011.jpg,147080,prediction_trial,62,image-keyboard-response,
182,Experiment 3,False,0,False,True,100,0,0,False,False,False,False,110,0.0-39.0,1,1663,[0],stimuli/0100110.jpg,149480,prediction_trial,64,image-keyboard-response,
182,Experiment 3,True,1,False,False,101,2,2,False,False,True,True,110,0.0-41.0,2,1102,[2],stimuli/2101110.jpg,151320,prediction_trial,66,image-keyboard-response,
182,Experiment 3,True,1,True,True,011,0,0,False,False,False,False,111,0.0-43.0,0,2022,[0],stimuli/0011111.jpg,153848,prediction_trial,68,image-keyboard-response,
182,Experiment 3,False,0,True,True,110,2,2,False,False,False,False,101,0.0-45.0,0,2285,[2],stimuli/2110101.jpg,156895,prediction_trial,70,image-keyboard-response,
182,Experiment 3,True,1,True,True,100,1,1,False,False,False,False,110,0.0-47.0,1,1308,[1],stimuli/1100110.jpg,158999,prediction_trial,72,image-keyboard-response,
182,Experiment 3,True,1,False,False,110,1,1,False,False,False,False,110,0.0-49.0,1,1134,[1],stimuli/1110110.jpg,160655,prediction_trial,74,image-keyboard-response,
182,Experiment 3,True,1,True,True,000,1,1,True,True,True,True,101,0.0-51.0,1,917,[1],stimuli/1000101.jpg,162263,prediction_trial,76,image-keyboard-response,
182,Experiment 3,True,1,False,False,111,1,1,False,False,True,True,001,0.0-53.0,1,799,[1],stimuli/1111001.jpg,163520,prediction_trial,78,image-keyboard-response,
182,Experiment 3,False,0,False,False,110,0,0,False,False,False,False,101,0.0-55.0,2,1497,[0],stimuli/0110101.jpg,165457,prediction_trial,80,image-keyboard-response,
182,Experiment 3,True,1,False,False,111,1,1,False,False,False,True,010,0.0-57.0,1,1383,[1],stimuli/1111010.jpg,167719,prediction_trial,82,image-keyboard-response,
182,Experiment 3,True,1,True,True,010,2,2,True,True,True,True,100,0.0-59.0,2,791,[2],stimuli/2010100.jpg,169032,prediction_trial,84,image-keyboard-response,
182,Experiment 3,True,1,True,True,000,0,0,False,False,False,False,110,0.0-61.0,0,2059,[0],stimuli/0000110.jpg,171559,prediction_trial,86,image-keyboard-response,
182,Experiment 3,True,1,False,False,110,0,0,False,False,True,True,001,0.0-63.0,0,870,[0],stimuli/0110001.jpg,173095,prediction_trial,88,image-keyboard-response,
182,Experiment 3,True,1,False,False,111,2,2,False,False,False,True,001,0.0-65.0,2,1086,[2],stimuli/2111001.jpg,174703,prediction_trial,90,image-keyboard-response,
182,Experiment 3,True,1,False,True,100,0,0,False,True,True,True,010,0.0-67.0,0,904,[0],stimuli/0100010.jpg,176080,prediction_trial,92,image-keyboard-response,
182,Experiment 3,True,1,True,True,001,1,1,True,True,True,True,101,0.0-69.0,1,854,[1],stimuli/1001101.jpg,177351,prediction_trial,94,image-keyboard-response,
182,Experiment 3,True,1,True,True,100,1,1,True,True,True,True,100,0.0-71.0,1,712,[1],stimuli/1100100.jpg,178481,prediction_trial,96,image-keyboard-response,
182,Experiment 3,True,1,True,True,011,0,0,False,False,False,False,110,0.0-73.0,0,2607,[0],stimuli/0011110.jpg,181471,prediction_trial,98,image-keyboard-response,
182,Experiment 3,True,1,True,True,110,2,2,True,True,True,True,110,0.0-75.0,2,950,[2],stimuli/2110110.jpg,182967,prediction_trial,100,image-keyboard-response,
182,Experiment 3,True,1,True,True,010,2,2,True,True,True,True,000,0.0-77.0,2,735,[2],stimuli/2010000.jpg,184104,prediction_trial,102,image-keyboard-response,
182,Experiment 3,False,0,True,True,110,2,2,False,False,False,False,111,0.0-79.0,0,1269,[2],stimuli/2110111.jpg,185791,prediction_trial,104,image-keyboard-response,
182,Experiment 3,True,1,False,True,001,2,2,False,True,True,True,110,0.0-81.0,2,845,[2],stimuli/2001110.jpg,188007,prediction_trial,106,image-keyboard-response,
182,Experiment 3,True,1,False,False,101,2,2,False,False,True,True,010,0.0-83.0,2,583,[2],stimuli/2101010.jpg,189111,prediction_trial,108,image-keyboard-response,
182,Experiment 3,True,1,True,True,000,0,0,True,True,True,True,000,0.0-85.0,0,1071,[0],stimuli/0000000.jpg,190656,prediction_trial,110,image-keyboard-response,
182,Experiment 3,True,1,True,True,010,2,2,False,True,False,True,001,0.0-87.0,2,1039,[2],stimuli/2010001.jpg,192144,prediction_trial,112,image-keyboard-response,
182,Experiment 3,True,1,True,True,000,1,1,False,False,False,False,110,0.0-89.0,1,1797,[1],stimuli/1000110.jpg,194415,prediction_trial,114,image-keyboard-response,
182,Experiment 3,True,1,True,True,001,0,0,True,True,True,True,001,0.0-91.0,0,718,[0],stimuli/0001001.jpg,195671,prediction_trial,116,image-keyboard-response,
182,Experiment 3,True,1,False,False,111,2,2,False,False,True,True,010,0.0-93.0,2,807,[2],stimuli/2111010.jpg,196912,prediction_trial,118,image-keyboard-response,
182,Experiment 3,True,1,False,False,111,0,0,False,False,True,True,000,0.0-95.0,0,798,[0],stimuli/0111000.jpg,198215,prediction_trial,120,image-keyboard-response,
182,Experiment 3,True,1,True,True,000,1,1,False,True,False,True,010,0.0-97.0,1,998,[1],stimuli/1000010.jpg,199647,prediction_trial,122,image-keyboard-response,
182,Experiment 3,True,1,True,True,100,2,2,True,True,True,True,110,0.0-99.0,2,646,[2],stimuli/2100110.jpg,200687,prediction_trial,124,image-keyboard-response,
182,Experiment 3,True,1,True,True,110,2,2,True,True,True,True,000,0.0-101.0,2,654,[2],stimuli/2110000.jpg,201752,prediction_trial,126,image-keyboard-response,
182,Experiment 3,True,1,True,True,000,1,1,True,True,True,True,100,0.0-103.0,1,759,[1],stimuli/1000100.jpg,202863,prediction_trial,128,image-keyboard-response,
182,Experiment 3,False,0,True,True,010,2,2,False,False,False,False,011,0.0-105.0,1,1423,[2],stimuli/2010011.jpg,204584,prediction_trial,130,image-keyboard-response,
182,Experiment 3,True,1,False,False,011,1,1,False,False,False,False,111,0.0-107.0,1,831,[1],stimuli/1011111.jpg,206215,prediction_trial,132,image-keyboard-response,
182,Experiment 3,False,0,False,False,101,2,2,False,False,False,False,111,0.0-109.0,1,1271,[2],stimuli/2101111.jpg,208240,prediction_trial,134,image-keyboard-response,
182,Experiment 3,True,1,True,True,011,0,0,False,False,False,False,101,0.0-111.0,0,2151,[0],stimuli/0011101.jpg,211048,prediction_trial,136,image-keyboard-response,
182,Experiment 3,True,1,True,True,001,0,0,False,True,False,True,100,0.0-113.0,0,1015,[0],stimuli/0001100.jpg,212616,prediction_trial,138,image-keyboard-response,
182,Experiment 3,True,1,False,False,011,1,1,False,False,True,True,100,0.0-115.0,1,871,[1],stimuli/1011100.jpg,213904,prediction_trial,140,image-keyboard-response,
182,Experiment 3,False,0,False,False,011,1,1,False,False,False,False,011,0.0-117.0,2,735,[1],stimuli/1011011.jpg,214975,prediction_trial,142,image-keyboard-response,
182,Experiment 3,False,0,False,False,111,1,1,False,False,False,False,111,0.0-119.0,2,926,[1],stimuli/1111111.jpg,216735,prediction_trial,144,image-keyboard-response,
182,Experiment 3,True,1,True,True,100,2,2,True,True,True,True,100,0.0-121.0,2,1728,[2],stimuli/2100100.jpg,219298,prediction_trial,146,image-keyboard-response,
182,Experiment 3,True,1,False,True,100,0,0,False,False,False,False,111,0.0-123.0,0,1439,[0],stimuli/0100111.jpg,221289,prediction_trial,148,image-keyboard-response,
182,Experiment 3,True,1,True,True,100,1,1,True,True,True,True,000,0.0-125.0,1,724,[1],stimuli/1100000.jpg,222632,prediction_trial,150,image-keyboard-response,
182,Experiment 3,True,1,True,True,001,0,0,True,True,True,True,010,0.0-127.0,0,758,[0],stimuli/0001010.jpg,223768,prediction_trial,152,image-keyboard-response,
182,Experiment 3,True,1,True,True,101,1,1,True,True,True,True,100,0.0-129.0,1,639,[1],stimuli/1101100.jpg,224791,prediction_trial,154,image-keyboard-response,
182,Experiment 3,True,1,False,False,111,2,2,False,False,False,False,101,0.0-131.0,2,1704,[2],stimuli/2111101.jpg,226897,prediction_trial,156,image-keyboard-response,
182,Experiment 3,True,1,False,False,111,0,0,False,False,True,True,001,0.0-133.0,0,987,[0],stimuli/0111001.jpg,228728,prediction_trial,158,image-keyboard-response,
182,Experiment 3,True,1,True,True,001,0,0,False,False,False,False,101,0.0-135.0,0,1344,[0],stimuli/0001101.jpg,230561,prediction_trial,160,image-keyboard-response,
182,Experiment 3,True,1,True,True,000,2,2,False,False,False,False,011,0.0-137.0,2,1152,[2],stimuli/2000011.jpg,232464,prediction_trial,162,image-keyboard-response,
182,Experiment 3,True,1,False,False,111,2,2,False,False,True,True,000,0.0-139.0,2,615,[2],stimuli/2111000.jpg,233672,prediction_trial,164,image-keyboard-response,
182,Experiment 3,True,1,True,True,110,2,2,True,True,True,True,010,0.0-141.0,2,901,[2],stimuli/2110010.jpg,234992,prediction_trial,166,image-keyboard-response,
182,Experiment 3,True,1,False,False,110,0,0,False,False,True,True,011,0.0-143.0,0,790,[0],stimuli/0110011.jpg,236184,prediction_trial,168,image-keyboard-response,
182,Experiment 3,True,1,False,False,011,1,1,False,False,True,True,000,0.0-145.0,1,838,[1],stimuli/1011000.jpg,237376,prediction_trial,170,image-keyboard-response,
182,Experiment 3,True,1,True,True,010,2,2,False,False,False,False,101,0.0-147.0,2,2070,[2],stimuli/2010101.jpg,239792,prediction_trial,172,image-keyboard-response,
182,Experiment 3,True,1,False,False,101,0,0,False,False,False,True,100,0.0-149.0,0,1119,[0],stimuli/0101100.jpg,241592,prediction_trial,174,image-keyboard-response,
182,Experiment 3,True,1,True,True,011,0,0,True,True,True,True,011,0.0-151.0,0,822,[0],stimuli/0011011.jpg,242936,prediction_trial,176,image-keyboard-response,
182,Experiment 3,True,1,False,False,101,2,2,False,False,True,True,100,0.0-153.0,2,790,[2],stimuli/2101100.jpg,244096,prediction_trial,178,image-keyboard-response,
182,Experiment 3,True,1,False,False,110,1,1,False,False,False,False,111,0.0-155.0,1,1630,[1],stimuli/1110111.jpg,246128,prediction_trial,180,image-keyboard-response,
182,Experiment 3,True,1,True,True,010,2,2,True,True,True,True,110,0.0-157.0,2,767,[2],stimuli/2010110.jpg,247368,prediction_trial,182,image-keyboard-response,
182,Experiment 3,False,0,False,True,001,2,2,False,False,False,False,111,0.0-159.0,0,1334,[2],stimuli/2001111.jpg,249112,prediction_trial,184,image-keyboard-response,
182,Experiment 3,True,1,True,True,000,1,1,True,True,True,True,000,0.0-161.0,1,686,[1],stimuli/1000000.jpg,250784,prediction_trial,186,image-keyboard-response,
182,Experiment 3,True,1,False,True,100,0,0,False,True,True,True,001,0.0-163.0,0,838,[0],stimuli/0100001.jpg,252040,prediction_trial,188,image-keyboard-response,
182,Experiment 3,True,1,False,True,010,1,1,False,True,False,True,010,0.0-165.0,1,957,[1],stimuli/1010010.jpg,253352,prediction_trial,190,image-keyboard-response,
182,Experiment 3,True,1,False,False,111,0,0,False,False,False,False,101,0.0-167.0,0,1799,[0],stimuli/0111101.jpg,255536,prediction_trial,192,image-keyboard-response,
182,Experiment 3,False,0,True,True,001,1,1,False,False,False,False,110,0.0-169.0,0,1086,[1],stimuli/1001110.jpg,257208,prediction_trial,194,image-keyboard-response,
182,Experiment 3,True,1,False,False,110,1,1,False,False,True,True,000,0.0-171.0,1,733,[1],stimuli/1110000.jpg,258872,prediction_trial,196,image-keyboard-response,
182,Experiment 3,True,1,True,True,101,1,1,True,True,True,True,101,0.0-173.0,1,552,[1],stimuli/1101101.jpg,259856,prediction_trial,198,image-keyboard-response,
182,Experiment 3,False,0,True,True,001,1,1,False,False,False,False,111,0.0-175.0,0,2198,[1],stimuli/1001111.jpg,262352,prediction_trial,200,image-keyboard-response,
182,Experiment 3,False,0,False,False,110,1,1,False,False,False,False,011,0.0-177.0,2,1878,[1],stimuli/1110011.jpg,265176,prediction_trial,202,image-keyboard-response,
182,Experiment 3,True,1,True,True,101,1,1,False,False,False,False,111,0.0-179.0,1,943,[1],stimuli/1101111.jpg,267056,prediction_trial,204,image-keyboard-response,
182,Experiment 3,True,1,True,True,000,1,1,False,False,False,False,111,0.0-181.0,1,878,[1],stimuli/1000111.jpg,268448,prediction_trial,206,image-keyboard-response,
182,Experiment 3,True,1,True,True,010,0,0,True,True,True,True,010,0.0-183.0,0,918,[0],stimuli/0010010.jpg,269872,prediction_trial,208,image-keyboard-response,
182,Experiment 3,False,0,True,True,010,2,2,False,False,False,False,111,0.0-185.0,1,948,[2],stimuli/2010111.jpg,271216,prediction_trial,210,image-keyboard-response,
182,Experiment 3,False,0,False,False,101,0,0,False,False,False,False,110,0.0-187.0,1,1031,[0],stimuli/0101110.jpg,272944,prediction_trial,212,image-keyboard-response,
182,Experiment 3,True,1,False,False,110,0,0,False,False,True,True,000,0.0-189.0,0,646,[0],stimuli/0110000.jpg,274240,prediction_trial,214,image-keyboard-response,
182,Experiment 3,True,1,True,True,000,0,0,False,False,False,False,111,0.0-191.0,0,1065,[0],stimuli/0000111.jpg,275705,prediction_trial,216,image-keyboard-response,
182,Experiment 3,True,1,True,True,100,2,2,True,True,True,True,000,0.0-193.0,2,814,[2],stimuli/2100000.jpg,277088,prediction_trial,218,image-keyboard-response,
182,Experiment 3,True,1,True,True,011,0,0,False,True,False,True,100,0.0-195.0,0,853,[0],stimuli/0011100.jpg,278375,prediction_trial,220,image-keyboard-response,
182,Experiment 3,False,0,False,False,011,2,2,False,False,False,False,101,0.0-197.0,0,2158,[2],stimuli/2011101.jpg,280975,prediction_trial,222,image-keyboard-response,
182,Experiment 3,True,1,True,True,000,2,2,True,True,True,True,010,0.0-199.0,2,599,[2],stimuli/2000010.jpg,282288,prediction_trial,224,image-keyboard-response,
182,Experiment 3,True,1,True,True,001,1,1,True,True,True,True,100,0.0-201.0,1,685,[1],stimuli/1001100.jpg,283303,prediction_trial,226,image-keyboard-response,
182,Experiment 3,False,0,True,True,100,1,1,False,False,False,False,111,0.0-203.0,0,766,[1],stimuli/1100111.jpg,284359,prediction_trial,228,image-keyboard-response,
182,Experiment 3,True,1,True,True,100,1,1,False,True,False,True,010,0.0-205.0,1,854,[1],stimuli/1100010.jpg,286007,prediction_trial,230,image-keyboard-response,
182,Experiment 3,True,1,False,False,110,0,0,False,False,True,True,010,0.0-207.0,0,1341,[0],stimuli/0110010.jpg,287959,prediction_trial,232,image-keyboard-response,
182,Experiment 3,True,1,True,True,101,1,1,False,True,False,True,010,0.0-209.0,1,1166,[1],stimuli/1101010.jpg,289631,prediction_trial,234,image-keyboard-response,
182,Experiment 3,False,0,True,True,010,0,0,False,False,False,False,111,0.0-211.0,1,1231,[0],stimuli/0010111.jpg,291296,prediction_trial,236,image-keyboard-response,
182,Experiment 3,True,1,False,False,111,0,0,False,False,False,False,110,0.0-213.0,0,2319,[0],stimuli/0111110.jpg,294423,prediction_trial,238,image-keyboard-response,
182,Experiment 3,False,0,True,True,001,0,0,False,False,False,False,110,0.0-215.0,1,1845,[0],stimuli/0001110.jpg,297023,prediction_trial,240,image-keyboard-response,
182,Experiment 3,True,1,True,True,000,2,2,False,True,False,True,001,0.0-217.0,2,871,[2],stimuli/2000001.jpg,298464,prediction_trial,242,image-keyboard-response,
182,Experiment 3,True,1,True,True,001,0,0,True,True,True,True,011,0.0-219.0,0,716,[0],stimuli/0001011.jpg,299735,prediction_trial,244,image-keyboard-response,
182,Experiment 3,False,0,True,True,000,2,2,False,False,False,False,101,0.0-221.0,0,1343,[2],stimuli/2000101.jpg,301407,prediction_trial,246,image-keyboard-response,
182,Experiment 3,True,1,False,False,110,0,0,False,False,False,True,100,0.0-223.0,0,966,[0],stimuli/0110100.jpg,303095,prediction_trial,248,image-keyboard-response,
182,Experiment 3,True,1,False,False,110,1,1,False,False,True,True,100,0.0-225.0,1,750,[1],stimuli/1110100.jpg,304255,prediction_trial,250,image-keyboard-response,
182,Experiment 3,True,1,True,True,001,1,1,False,False,False,False,011,0.0-227.0,1,1479,[1],stimuli/1001011.jpg,306088,prediction_trial,252,image-keyboard-response,
182,Experiment 3,True,1,False,False,011,2,2,False,False,True,True,100,0.0-229.0,2,677,[2],stimuli/2011100.jpg,307311,prediction_trial,254,image-keyboard-response,
182,Experiment 3,True,1,True,True,000,2,2,True,True,True,True,110,0.0-231.0,2,552,[2],stimuli/2000110.jpg,308280,prediction_trial,256,image-keyboard-response,
182,Experiment 3,True,1,False,True,010,1,1,False,True,True,True,101,0.0-233.0,1,672,[1],stimuli/1010101.jpg,309295,prediction_trial,258,image-keyboard-response,
182,Experiment 3,True,1,True,True,100,1,1,True,True,True,True,101,0.0-235.0,1,599,[1],stimuli/1100101.jpg,310208,prediction_trial,260,image-keyboard-response,
182,Experiment 3,True,1,True,True,000,0,0,False,True,False,True,100,0.0-237.0,0,814,[0],stimuli/0000100.jpg,311278,prediction_trial,262,image-keyboard-response,
182,Experiment 3,False,0,False,False,101,2,2,False,False,False,False,101,0.0-239.0,0,1199,[2],stimuli/2101101.jpg,312943,prediction_trial,264,image-keyboard-response,
182,Experiment 3,True,1,False,False,111,2,2,False,False,True,True,100,0.0-241.0,2,662,[2],stimuli/2111100.jpg,314407,prediction_trial,266,image-keyboard-response,
182,Experiment 3,True,1,False,False,110,1,1,False,False,False,True,010,0.0-243.0,1,855,[1],stimuli/1110010.jpg,315600,prediction_trial,268,image-keyboard-response,
182,Experiment 3,True,1,False,False,011,2,2,False,False,True,True,000,0.0-245.0,2,637,[2],stimuli/2011000.jpg,316559,prediction_trial,270,image-keyboard-response,
182,Experiment 3,True,1,False,False,101,0,0,False,False,True,True,010,0.0-247.0,0,759,[0],stimuli/0101010.jpg,317775,prediction_trial,272,image-keyboard-response,
182,Experiment 3,True,1,False,False,111,0,0,False,False,True,True,010,0.0-249.0,0,910,[0],stimuli/0111010.jpg,319032,prediction_trial,274,image-keyboard-response,
182,Experiment 3,True,1,True,True,100,2,2,False,False,False,False,011,0.0-251.0,2,1791,[2],stimuli/2100011.jpg,321127,prediction_trial,276,image-keyboard-response,
182,Experiment 3,True,1,True,True,100,2,2,False,False,False,False,101,0.0-253.0,2,1526,[2],stimuli/2100101.jpg,323199,prediction_trial,278,image-keyboard-response,
182,Experiment 3,True,1,True,True,100,1,1,True,True,True,True,001,0.0-255.0,1,1072,[1],stimuli/1100001.jpg,324945,prediction_trial,280,image-keyboard-response,
182,Experiment 3,True,1,True,True,110,2,2,False,True,False,True,001,0.0-257.0,2,806,[2],stimuli/2110001.jpg,326063,prediction_trial,282,image-keyboard-response,
182,Experiment 3,True,1,False,False,101,0,0,False,False,False,False,101,0.0-259.0,0,1585,[0],stimuli/0101101.jpg,327961,prediction_trial,284,image-keyboard-response,
182,Experiment 3,True,1,True,True,100,2,2,True,True,True,True,010,0.0-261.0,2,710,[2],stimuli/2100010.jpg,329207,prediction_trial,286,image-keyboard-response,
182,Experiment 3,True,1,False,False,111,1,1,False,False,True,True,000,0.0-263.0,1,759,[1],stimuli/1111000.jpg,330391,prediction_trial,288,image-keyboard-response,
182,Experiment 3,True,1,True,True,001,1,1,True,True,True,True,000,0.0-265.0,1,607,[1],stimuli/1001000.jpg,331711,prediction_trial,290,image-keyboard-response,
182,Experiment 3,True,1,True,True,001,0,0,True,True,True,True,000,0.0-267.0,0,807,[0],stimuli/0001000.jpg,332864,prediction_trial,292,image-keyboard-response,
182,Experiment 3,True,1,False,True,001,2,2,False,True,True,True,000,0.0-269.0,2,607,[2],stimuli/2001000.jpg,333743,prediction_trial,294,image-keyboard-response,
182,Experiment 3,True,1,False,False,110,0,0,False,False,False,False,111,0.0-271.0,0,1735,[0],stimuli/0110111.jpg,335751,prediction_trial,296,image-keyboard-response,
182,Experiment 3,True,1,False,False,111,2,2,False,False,True,True,110,0.0-273.0,2,662,[2],stimuli/2111110.jpg,337144,prediction_trial,298,image-keyboard-response,
182,Experiment 3,True,1,True,True,000,0,0,True,True,True,True,001,0.0-275.0,0,646,[0],stimuli/0000001.jpg,338160,prediction_trial,300,image-keyboard-response,
182,Experiment 3,True,1,False,False,011,1,1,False,False,True,True,001,0.0-277.0,1,647,[1],stimuli/1011001.jpg,339087,prediction_trial,302,image-keyboard-response,
182,Experiment 3,False,0,True,True,000,1,1,False,False,False,False,011,0.0-279.0,2,998,[1],stimuli/1000011.jpg,340327,prediction_trial,304,image-keyboard-response,
182,Experiment 3,True,1,False,True,010,1,1,False,True,True,True,000,0.0-281.0,1,694,[1],stimuli/1010000.jpg,342087,prediction_trial,306,image-keyboard-response,
182,Experiment 3,True,1,False,True,001,2,2,False,True,True,True,100,0.0-283.0,2,717,[2],stimuli/2001100.jpg,343143,prediction_trial,308,image-keyboard-response,
182,Experiment 3,False,0,True,True,001,0,0,False,False,False,False,111,0.0-285.0,2,1079,[0],stimuli/0001111.jpg,344545,prediction_trial,310,image-keyboard-response,
182,Experiment 3,True,1,False,False,011,1,1,False,False,True,True,101,0.0-287.0,1,615,[1],stimuli/1011101.jpg,345839,prediction_trial,312,image-keyboard-response,
182,Experiment 3,True,1,True,True,000,1,1,True,True,True,True,001,0.0-289.0,1,551,[1],stimuli/1000001.jpg,346695,prediction_trial,314,image-keyboard-response,
182,Experiment 3,True,1,False,True,010,1,1,False,False,False,False,111,0.0-291.0,1,1134,[1],stimuli/1010111.jpg,348112,prediction_trial,316,image-keyboard-response,
215,Experiment 3,True,1,False,False,110,1,1,False,False,True,True,101,0.0-5.0,1,1169,[1],stimuli/1110101.jpg,146320,prediction_trial,30,image-keyboard-response,
215,Experiment 3,False,0,True,True,010,2,2,False,False,False,False,011,0.0-7.0,1,3185,[2],stimuli/2010011.jpg,150608,prediction_trial,32,image-keyboard-response,
215,Experiment 3,False,0,False,False,101,2,2,False,False,False,False,011,0.0-9.0,1,3703,[2],stimuli/2101011.jpg,160537,prediction_trial,34,image-keyboard-response,
215,Experiment 3,False,0,True,True,011,0,0,False,False,False,False,111,0.0-11.0,2,1076,[0],stimuli/0011111.jpg,165881,prediction_trial,36,image-keyboard-response,
215,Experiment 3,True,1,False,False,110,0,0,False,False,True,True,001,0.0-13.0,0,681,[0],stimuli/0110001.jpg,169362,prediction_trial,38,image-keyboard-response,
215,Experiment 3,False,0,True,True,000,0,0,False,False,False,False,111,0.0-15.0,2,1132,[0],stimuli/0000111.jpg,171157,prediction_trial,40,image-keyboard-response,
215,Experiment 3,True,1,False,False,111,0,0,False,False,True,True,011,0.0-17.0,0,812,[0],stimuli/0111011.jpg,172979,prediction_trial,42,image-keyboard-response,
215,Experiment 3,True,1,True,True,100,1,1,True,True,True,True,100,0.0-19.0,1,1398,[1],stimuli/1100100.jpg,174730,prediction_trial,44,image-keyboard-response,
215,Experiment 3,False,0,True,True,100,1,1,False,False,False,False,110,0.0-21.0,0,1833,[1],stimuli/1100110.jpg,176975,prediction_trial,46,image-keyboard-response,
215,Experiment 3,True,1,True,True,001,0,0,True,True,True,True,000,0.0-23.0,0,1953,[0],stimuli/0001000.jpg,179926,prediction_trial,48,image-keyboard-response,
215,Experiment 3,True,1,False,True,001,2,2,False,True,True,True,100,0.0-25.0,2,629,[2],stimuli/2001100.jpg,180987,prediction_trial,50,image-keyboard-response,
215,Experiment 3,True,1,True,True,001,1,1,False,True,False,True,010,0.0-27.0,1,1146,[1],stimuli/1001010.jpg,182506,prediction_trial,52,image-keyboard-response,
215,Experiment 3,True,1,True,True,010,0,0,True,True,True,True,000,0.0-29.0,0,717,[0],stimuli/0010000.jpg,183971,prediction_trial,54,image-keyboard-response,
215,Experiment 3,True,1,True,True,000,1,1,True,True,True,True,100,0.0-31.0,1,601,[1],stimuli/1000100.jpg,185039,prediction_trial,56,image-keyboard-response,
215,Experiment 3,True,1,False,False,111,1,1,False,False,True,True,100,0.0-33.0,1,793,[1],stimuli/1111100.jpg,186200,prediction_trial,58,image-keyboard-response,
215,Experiment 3,True,1,True,True,101,1,1,True,True,True,True,001,0.0-35.0,1,529,[1],stimuli/1101001.jpg,187144,prediction_trial,60,image-keyboard-response,
215,Experiment 3,True,1,False,True,001,2,2,False,False,False,False,011,0.0-37.0,2,2383,[2],stimuli/2001011.jpg,189781,prediction_trial,62,image-keyboard-response,
215,Experiment 3,True,1,False,False,111,1,1,False,False,False,True,010,0.0-39.0,1,964,[1],stimuli/1111010.jpg,191742,prediction_trial,64,image-keyboard-response,
215,Experiment 3,True,1,False,False,101,0,0,False,False,False,True,100,0.0-41.0,0,920,[0],stimuli/0101100.jpg,193086,prediction_trial,66,image-keyboard-response,
215,Experiment 3,True,1,True,True,001,1,1,True,True,True,True,101,0.0-43.0,1,724,[1],stimuli/1001101.jpg,194191,prediction_trial,68,image-keyboard-response,
215,Experiment 3,False,0,False,False,110,0,0,False,False,False,False,110,0.0-45.0,1,1368,[0],stimuli/0110110.jpg,195796,prediction_trial,70,image-keyboard-response,
215,Experiment 3,False,0,True,True,100,2,2,False,False,False,False,111,0.0-47.0,0,1950,[2],stimuli/2100111.jpg,198322,prediction_trial,72,image-keyboard-response,
215,Experiment 3,True,1,False,False,011,1,1,False,False,True,True,001,0.0-49.0,1,606,[1],stimuli/1011001.jpg,199787,prediction_trial,74,image-keyboard-response,
215,Experiment 3,True,1,True,True,000,2,2,False,False,False,False,011,0.0-51.0,2,681,[2],stimuli/2000011.jpg,200715,prediction_trial,76,image-keyboard-response,
215,Experiment 3,True,1,True,True,001,1,1,False,False,False,False,110,0.0-53.0,1,1270,[1],stimuli/1001110.jpg,202502,prediction_trial,78,image-keyboard-response,
215,Experiment 3,True,1,False,False,111,1,1,False,False,False,False,011,0.0-55.0,1,1458,[1],stimuli/1111011.jpg,204639,prediction_trial,80,image-keyboard-response,
215,Experiment 3,True,1,False,False,101,2,2,False,False,True,True,000,0.0-57.0,2,704,[2],stimuli/2101000.jpg,205812,prediction_trial,82,image-keyboard-response,
215,Experiment 3,True,1,True,True,100,2,2,True,True,True,True,000,0.0-59.0,2,530,[2],stimuli/2100000.jpg,206618,prediction_trial,84,image-keyboard-response,
215,Experiment 3,True,1,False,False,110,0,0,False,False,False,True,100,0.0-61.0,0,561,[0],stimuli/0110100.jpg,207450,prediction_trial,86,image-keyboard-response,
215,Experiment 3,False,0,False,False,101,2,2,False,False,False,False,101,0.0-63.0,0,1434,[2],stimuli/2101101.jpg,209133,prediction_trial,88,image-keyboard-response,
215,Experiment 3,True,1,True,True,000,2,2,True,True,True,True,110,0.0-65.0,2,988,[2],stimuli/2000110.jpg,210330,prediction_trial,90,image-keyboard-response,
215,Experiment 3,False,0,False,False,101,0,0,False,False,False,False,101,0.0-67.0,2,825,[0],stimuli/0101101.jpg,211439,prediction_trial,92,image-keyboard-response,
215,Experiment 3,True,1,True,True,110,2,2,True,True,True,True,000,0.0-69.0,2,522,[2],stimuli/2110000.jpg,212384,prediction_trial,94,image-keyboard-response,
215,Experiment 3,True,1,True,True,100,2,2,True,True,True,True,010,0.0-71.0,2,833,[2],stimuli/2100010.jpg,213489,prediction_trial,96,image-keyboard-response,
215,Experiment 3,True,1,False,True,001,2,2,False,False,False,False,111,0.0-73.0,2,1060,[2],stimuli/2001111.jpg,214801,prediction_trial,98,image-keyboard-response,
215,Experiment 3,False,0,True,True,101,1,1,False,False,False,False,111,0.0-75.0,0,633,[1],stimuli/1101111.jpg,215765,prediction_trial,100,image-keyboard-response,
215,Experiment 3,False,0,True,True,100,1,1,False,False,False,False,011,0.0-77.0,0,540,[1],stimuli/1100011.jpg,216946,prediction_trial,102,image-keyboard-response,
215,Experiment 3,True,1,True,True,001,1,1,True,True,True,True,000,0.0-79.0,1,529,[1],stimuli/1001000.jpg,218230,prediction_trial,104,image-keyboard-response,
215,Experiment 3,True,1,True,True,101,1,1,True,True,True,True,000,0.0-81.0,1,513,[1],stimuli/1101000.jpg,219048,prediction_trial,106,image-keyboard-response,
215,Experiment 3,True,1,True,True,101,1,1,True,True,True,True,101,0.0-83.0,1,469,[1],stimuli/1101101.jpg,219761,prediction_trial,108,image-keyboard-response,
215,Experiment 3,True,1,False,False,011,2,2,False,False,True,True,110,0.0-85.0,2,557,[2],stimuli/2011110.jpg,220444,prediction_trial,110,image-keyboard-response,
215,Experiment 3,False,0,True,True,010,0,0,False,False,False,False,111,0.0-87.0,1,752,[0],stimuli/0010111.jpg,221428,prediction_trial,112,image-keyboard-response,
215,Experiment 3,False,0,True,True,001,0,0,False,False,False,False,111,0.0-89.0,2,693,[0],stimuli/0001111.jpg,222804,prediction_trial,114,image-keyboard-response,
215,Experiment 3,True,1,False,True,001,2,2,False,True,True,True,000,0.0-91.0,2,900,[2],stimuli/2001000.jpg,224148,prediction_trial,116,image-keyboard-response,
215,Experiment 3,True,1,False,False,111,0,0,False,False,False,False,110,0.0-93.0,0,2048,[0],stimuli/0111110.jpg,226540,prediction_trial,118,image-keyboard-response,
215,Experiment 3,True,1,False,True,100,0,0,False,True,False,True,100,0.0-95.0,0,716,[0],stimuli/0100100.jpg,227633,prediction_trial,120,image-keyboard-response,
215,Experiment 3,True,1,True,True,011,0,0,True,True,True,True,001,0.0-97.0,0,528,[0],stimuli/0011001.jpg,228403,prediction_trial,122,image-keyboard-response,
215,Experiment 3,True,1,False,False,101,0,0,False,False,False,False,111,0.0-99.0,0,1143,[0],stimuli/0101111.jpg,229747,prediction_trial,124,image-keyboard-response,
215,Experiment 3,True,1,False,True,100,0,0,False,True,True,True,000,0.0-101.0,0,519,[0],stimuli/0100000.jpg,230632,prediction_trial,126,image-keyboard-response,
215,Experiment 3,True,1,False,False,011,1,1,False,False,True,True,000,0.0-103.0,1,665,[1],stimuli/1011000.jpg,231535,prediction_trial,128,image-keyboard-response,
215,Experiment 3,True,1,False,False,111,1,1,False,False,True,True,001,0.0-105.0,1,477,[1],stimuli/1111001.jpg,232252,prediction_trial,130,image-keyboard-response,
215,Experiment 3,True,1,False,False,111,2,2,False,False,True,True,000,0.0-107.0,2,441,[2],stimuli/2111000.jpg,232930,prediction_trial,132,image-keyboard-response,
215,Experiment 3,False,0,False,False,111,0,0,False,False,False,False,101,0.0-109.0,2,1175,[0],stimuli/0111101.jpg,234358,prediction_trial,134,image-keyboard-response,
215,Experiment 3,True,1,True,True,011,0,0,False,True,False,True,100,0.0-111.0,0,752,[0],stimuli/0011100.jpg,235561,prediction_trial,136,image-keyboard-response,
215,Experiment 3,True,1,True,True,101,1,1,False,False,False,False,011,0.0-113.0,1,995,[1],stimuli/1101011.jpg,236806,prediction_trial,138,image-keyboard-response,
215,Experiment 3,True,1,True,True,010,0,0,True,True,True,True,010,0.0-115.0,0,625,[0],stimuli/0010010.jpg,237838,prediction_trial,140,image-keyboard-response,
215,Experiment 3,True,1,False,True,010,1,1,False,True,True,True,001,0.0-117.0,1,541,[1],stimuli/1010001.jpg,238601,prediction_trial,142,image-keyboard-response,
215,Experiment 3,True,1,True,True,000,0,0,True,True,True,True,001,0.0-119.0,0,529,[0],stimuli/0000001.jpg,239358,prediction_trial,144,image-keyboard-response,
215,Experiment 3,True,1,False,False,111,1,1,False,False,False,False,111,0.0-121.0,1,684,[1],stimuli/1111111.jpg,240252,prediction_trial,146,image-keyboard-response,
215,Experiment 3,False,0,False,True,100,0,0,False,False,False,False,101,0.0-123.0,2,649,[0],stimuli/0100101.jpg,241280,prediction_trial,148,image-keyboard-response,
215,Experiment 3,True,1,False,False,011,2,2,False,False,False,True,001,0.0-125.0,2,626,[2],stimuli/2011001.jpg,242299,prediction_trial,150,image-keyboard-response,
215,Experiment 3,True,1,True,True,000,0,0,False,False,False,False,101,0.0-127.0,0,693,[0],stimuli/0000101.jpg,243267,prediction_trial,152,image-keyboard-response,
215,Experiment 3,True,1,True,True,010,0,0,False,False,False,False,101,0.0-129.0,0,1610,[0],stimuli/0010101.jpg,245200,prediction_trial,154,image-keyboard-response,
215,Experiment 3,True,1,True,True,001,0,0,False,False,False,False,101,0.0-131.0,0,1319,[0],stimuli/0001101.jpg,246915,prediction_trial,156,image-keyboard-response,
215,Experiment 3,True,1,True,True,000,1,1,False,False,False,False,011,0.0-133.0,1,2063,[1],stimuli/1000011.jpg,249395,prediction_trial,158,image-keyboard-response,
215,Experiment 3,True,1,False,False,111,1,1,False,False,True,True,101,0.0-135.0,1,542,[1],stimuli/1111101.jpg,250317,prediction_trial,160,image-keyboard-response,
215,Experiment 3,True,1,True,True,010,2,2,True,True,True,True,000,0.0-137.0,2,482,[2],stimuli/2010000.jpg,250996,prediction_trial,162,image-keyboard-response,
215,Experiment 3,False,0,True,True,010,0,0,False,False,False,False,110,0.0-139.0,1,752,[0],stimuli/0010110.jpg,251976,prediction_trial,164,image-keyboard-response,
215,Experiment 3,True,1,False,True,001,2,2,False,True,True,True,010,0.0-141.0,2,537,[2],stimuli/2001010.jpg,252985,prediction_trial,166,image-keyboard-response,
215,Experiment 3,True,1,False,False,011,1,1,False,False,False,False,111,0.0-143.0,1,645,[1],stimuli/1011111.jpg,253894,prediction_trial,168,image-keyboard-response,
215,Experiment 3,True,1,False,False,011,1,1,False,False,False,True,010,0.0-145.0,1,442,[1],stimuli/1011010.jpg,254596,prediction_trial,170,image-keyboard-response,
215,Experiment 3,True,1,True,True,000,0,0,False,True,False,True,100,0.0-147.0,0,681,[0],stimuli/0000100.jpg,255545,prediction_trial,172,image-keyboard-response,
215,Experiment 3,True,1,True,True,011,0,0,True,True,True,True,010,0.0-149.0,0,480,[0],stimuli/0011010.jpg,256196,prediction_trial,174,image-keyboard-response,
215,Experiment 3,True,1,True,True,001,0,0,True,True,True,True,001,0.0-151.0,0,936,[0],stimuli/0001001.jpg,257307,prediction_trial,176,image-keyboard-response,
215,Experiment 3,True,1,True,True,011,0,0,False,False,False,False,110,0.0-153.0,0,1545,[0],stimuli/0011110.jpg,259145,prediction_trial,178,image-keyboard-response,
215,Experiment 3,True,1,True,True,100,1,1,True,True,True,True,000,0.0-155.0,1,642,[1],stimuli/1100000.jpg,259947,prediction_trial,180,image-keyboard-response,
215,Experiment 3,True,1,False,False,101,2,2,False,False,True,True,010,0.0-157.0,2,509,[2],stimuli/2101010.jpg,260646,prediction_trial,182,image-keyboard-response,
215,Experiment 3,True,1,False,True,010,1,1,False,True,True,True,000,0.0-159.0,1,586,[1],stimuli/1010000.jpg,261453,prediction_trial,184,image-keyboard-response,
215,Experiment 3,True,1,True,True,100,1,1,True,True,True,True,001,0.0-161.0,1,582,[1],stimuli/1100001.jpg,262182,prediction_trial,186,image-keyboard-response,
215,Experiment 3,True,1,True,True,110,2,2,True,True,True,True,110,0.0-163.0,2,526,[2],stimuli/2110110.jpg,262827,prediction_trial,188,image-keyboard-response,
215,Experiment 3,True,1,False,False,101,2,2,False,False,False,False,111,0.0-165.0,2,1378,[2],stimuli/2101111.jpg,264434,prediction_trial,190,image-keyboard-response,
215,Experiment 3,True,1,True,True,010,2,2,True,True,True,True,010,0.0-167.0,2,613,[2],stimuli/2010010.jpg,265180,prediction_trial,192,image-keyboard-response,
215,Experiment 3,True,1,False,False,101,0,0,False,False,True,True,010,0.0-169.0,0,1482,[0],stimuli/0101010.jpg,266831,prediction_trial,194,image-keyboard-response,
215,Experiment 3,True,1,False,True,100,0,0,False,False,False,False,111,0.0-171.0,0,1494,[0],stimuli/0100111.jpg,268493,prediction_trial,196,image-keyboard-response,
215,Experiment 3,True,1,True,True,000,2,2,True,True,True,True,000,0.0-173.0,2,781,[2],stimuli/2000000.jpg,269634,prediction_trial,198,image-keyboard-response,
215,Experiment 3,True,1,False,False,110,1,1,False,False,True,True,001,0.0-175.0,1,701,[1],stimuli/1110001.jpg,270580,prediction_trial,200,image-keyboard-response,
215,Experiment 3,True,1,False,True,100,0,0,False,True,True,True,011,0.0-177.0,0,1665,[0],stimuli/0100011.jpg,272457,prediction_trial,202,image-keyboard-response,
215,Experiment 3,True,1,False,False,011,1,1,False,False,True,True,100,0.0-179.0,1,693,[1],stimuli/1011100.jpg,273415,prediction_trial,204,image-keyboard-response,
215,Experiment 3,True,1,True,True,010,2,2,True,True,True,True,110,0.0-181.0,2,1411,[2],stimuli/2010110.jpg,275453,prediction_trial,206,image-keyboard-response,
215,Experiment 3,True,1,True,True,001,1,1,False,False,False,False,011,0.0-183.0,1,2655,[1],stimuli/1001011.jpg,278567,prediction_trial,208,image-keyboard-response,
215,Experiment 3,True,1,False,False,101,0,0,False,False,True,True,001,0.0-185.0,0,743,[0],stimuli/0101001.jpg,279579,prediction_trial,210,image-keyboard-response,
215,Experiment 3,True,1,False,True,010,1,1,False,True,True,True,100,0.0-187.0,1,875,[1],stimuli/1010100.jpg,280724,prediction_trial,212,image-keyboard-response,
215,Experiment 3,True,1,False,False,111,0,0,False,False,True,True,010,0.0-189.0,0,712,[0],stimuli/0111010.jpg,281653,prediction_trial,214,image-keyboard-response,
215,Experiment 3,False,0,False,False,111,2,2,False,False,False,False,011,0.0-191.0,1,3608,[2],stimuli/2111011.jpg,285427,prediction_trial,216,image-keyboard-response,
215,Experiment 3,True,1,False,False,011,2,2,False,False,False,False,011,0.0-193.0,2,1024,[2],stimuli/2011011.jpg,289083,prediction_trial,218,image-keyboard-response,
215,Experiment 3,True,1,False,False,111,2,2,False,False,False,True,001,0.0-195.0,2,901,[2],stimuli/2111001.jpg,290320,prediction_trial,220,image-keyboard-response,
215,Experiment 3,True,1,True,True,010,0,0,True,True,True,True,001,0.0-197.0,0,465,[0],stimuli/0010001.jpg,290969,prediction_trial,222,image-keyboard-response,
215,Experiment 3,True,1,True,True,001,0,0,True,True,True,True,010,0.0-199.0,0,596,[0],stimuli/0001010.jpg,291746,prediction_trial,224,image-keyboard-response,
215,Experiment 3,False,0,False,False,011,2,2,False,False,False,False,101,0.0-201.0,0,1283,[2],stimuli/2011101.jpg,293202,prediction_trial,226,image-keyboard-response,
215,Experiment 3,False,0,False,True,010,1,1,False,False,False,False,111,0.0-203.0,0,899,[1],stimuli/1010111.jpg,294195,prediction_trial,228,image-keyboard-response,
215,Experiment 3,True,1,False,False,011,1,1,False,False,False,False,011,0.0-205.0,1,2471,[1],stimuli/1011011.jpg,296895,prediction_trial,230,image-keyboard-response,
215,Experiment 3,True,1,True,True,001,0,0,True,True,True,True,011,0.0-207.0,0,555,[0],stimuli/0001011.jpg,297836,prediction_trial,232,image-keyboard-response,
215,Experiment 3,True,1,False,False,110,0,0,False,False,True,True,010,0.0-209.0,0,679,[0],stimuli/0110010.jpg,298685,prediction_trial,234,image-keyboard-response,
215,Experiment 3,False,0,True,True,110,2,2,False,False,False,False,111,0.0-211.0,0,1469,[2],stimuli/2110111.jpg,300376,prediction_trial,236,image-keyboard-response,
215,Experiment 3,False,0,True,True,110,2,2,False,False,False,False,011,0.0-213.0,1,721,[2],stimuli/2110011.jpg,301681,prediction_trial,238,image-keyboard-response,
215,Experiment 3,True,1,False,False,110,1,1,False,False,False,False,111,0.0-215.0,1,936,[1],stimuli/1110111.jpg,303252,prediction_trial,240,image-keyboard-response,
215,Experiment 3,False,0,True,True,000,0,0,False,False,False,False,110,0.0-217.0,1,803,[0],stimuli/0000110.jpg,304408,prediction_trial,242,image-keyboard-response,
215,Experiment 3,True,1,False,False,101,2,2,False,False,True,True,110,0.0-219.0,2,518,[2],stimuli/2101110.jpg,305442,prediction_trial,244,image-keyboard-response,
215,Experiment 3,True,1,True,True,001,1,1,False,False,False,False,111,0.0-221.0,1,801,[1],stimuli/1001111.jpg,306518,prediction_trial,246,image-keyboard-response,
215,Experiment 3,True,1,True,True,100,2,2,True,True,True,True,100,0.0-223.0,2,486,[2],stimuli/2100100.jpg,307296,prediction_trial,248,image-keyboard-response,
215,Experiment 3,True,1,False,False,111,1,1,False,False,False,False,110,0.0-225.0,1,1489,[1],stimuli/1111110.jpg,308998,prediction_trial,250,image-keyboard-response,
215,Experiment 3,False,0,False,True,100,0,0,False,False,False,False,110,0.0-227.0,1,629,[0],stimuli/0100110.jpg,309800,prediction_trial,252,image-keyboard-response,
215,Experiment 3,True,1,False,True,010,1,1,False,False,False,False,011,0.0-229.0,1,613,[1],stimuli/1010011.jpg,310797,prediction_trial,254,image-keyboard-response,
215,Experiment 3,True,1,False,False,110,0,0,False,False,True,True,000,0.0-231.0,0,515,[0],stimuli/0110000.jpg,311606,prediction_trial,256,image-keyboard-response,
215,Experiment 3,True,1,False,False,110,0,0,False,False,False,False,101,0.0-233.0,0,873,[0],stimuli/0110101.jpg,312744,prediction_trial,258,image-keyboard-response,
215,Experiment 3,True,1,True,True,010,0,0,True,True,True,True,011,0.0-235.0,0,692,[0],stimuli/0010011.jpg,313568,prediction_trial,260,image-keyboard-response,
215,Experiment 3,False,0,False,False,111,2,2,False,False,False,False,111,0.0-237.0,0,1817,[2],stimuli/2111111.jpg,315514,prediction_trial,262,image-keyboard-response,
215,Experiment 3,True,1,True,True,000,1,1,False,False,False,False,110,0.0-239.0,1,1957,[1],stimuli/1000110.jpg,318067,prediction_trial,264,image-keyboard-response,
215,Experiment 3,True,1,False,False,110,1,1,False,False,False,True,010,0.0-241.0,1,677,[1],stimuli/1110010.jpg,319092,prediction_trial,266,image-keyboard-response,
215,Experiment 3,True,1,False,False,101,2,2,False,False,False,True,001,0.0-243.0,2,1263,[2],stimuli/2101001.jpg,320548,prediction_trial,268,image-keyboard-response,
215,Experiment 3,True,1,True,True,011,0,0,True,True,True,True,011,0.0-245.0,0,681,[0],stimuli/0011011.jpg,321576,prediction_trial,270,image-keyboard-response,
215,Experiment 3,True,1,False,False,111,1,1,False,False,True,True,000,0.0-247.0,1,696,[1],stimuli/1111000.jpg,322466,prediction_trial,272,image-keyboard-response,
215,Experiment 3,True,1,True,True,000,0,0,True,True,True,True,011,0.0-249.0,0,1239,[0],stimuli/0000011.jpg,323965,prediction_trial,274,image-keyboard-response,
215,Experiment 3,True,1,False,False,011,2,2,False,False,True,True,000,0.0-251.0,2,2433,[2],stimuli/2011000.jpg,326976,prediction_trial,276,image-keyboard-response,
215,Experiment 3,True,1,False,False,110,1,1,False,False,True,True,100,0.0-253.0,1,693,[1],stimuli/1110100.jpg,328572,prediction_trial,278,image-keyboard-response,
215,Experiment 3,True,1,False,False,111,0,0,False,False,False,False,111,0.0-255.0,0,2722,[0],stimuli/0111111.jpg,331617,prediction_trial,280,image-keyboard-response,
215,Experiment 3,False,0,True,True,001,0,0,False,False,False,False,110,0.0-257.0,2,1322,[0],stimuli/0001110.jpg,333317,prediction_trial,282,image-keyboard-response,
215,Experiment 3,True,1,False,False,110,0,0,False,False,True,True,011,0.0-259.0,0,647,[0],stimuli/0110011.jpg,335638,prediction_trial,284,image-keyboard-response,
215,Experiment 3,True,1,False,True,001,2,2,False,True,False,True,001,0.0-261.0,2,817,[2],stimuli/2001001.jpg,336659,prediction_trial,286,image-keyboard-response,
215,Experiment 3,False,0,True,True,100,1,1,False,False,False,False,111,0.0-263.0,0,898,[1],stimuli/1100111.jpg,337882,prediction_trial,288,image-keyboard-response,
215,Experiment 3,True,1,False,False,011,1,1,False,False,True,True,101,0.0-265.0,1,1842,[1],stimuli/1011101.jpg,339945,prediction_trial,290,image-keyboard-response,
215,Experiment 3,True,1,False,False,111,0,0,False,False,True,True,000,0.0-267.0,0,461,[0],stimuli/0111000.jpg,340627,prediction_trial,292,image-keyboard-response,
215,Experiment 3,True,1,False,False,110,1,1,False,False,False,False,110,0.0-269.0,1,1514,[1],stimuli/1110110.jpg,342358,prediction_trial,294,image-keyboard-response,
215,Experiment 3,True,1,False,True,100,0,0,False,True,True,True,010,0.0-271.0,0,513,[0],stimuli/0100010.jpg,343207,prediction_trial,296,image-keyboard-response,
215,Experiment 3,True,1,True,True,101,1,1,True,True,True,True,100,0.0-273.0,1,705,[1],stimuli/1101100.jpg,344165,prediction_trial,298,image-keyboard-response,
215,Experiment 3,False,0,True,True,011,0,0,False,False,False,False,101,0.0-275.0,2,1519,[0],stimuli/0011101.jpg,345876,prediction_trial,300,image-keyboard-response,
215,Experiment 3,True,1,True,True,000,0,0,True,True,True,True,010,0.0-277.0,0,538,[0],stimuli/0000010.jpg,347998,prediction_trial,302,image-keyboard-response,
215,Experiment 3,False,0,False,False,110,0,0,False,False,False,False,111,0.0-279.0,1,768,[0],stimuli/0110111.jpg,348966,prediction_trial,304,image-keyboard-response,
215,Experiment 3,True,1,True,True,010,2,2,True,True,True,True,100,0.0-281.0,2,586,[2],stimuli/2010100.jpg,350207,prediction_trial,306,image-keyboard-response,
215,Experiment 3,True,1,False,False,110,1,1,False,False,True,True,000,0.0-283.0,1,436,[1],stimuli/1110000.jpg,350872,prediction_trial,308,image-keyboard-response,
215,Experiment 3,False,0,True,True,000,1,1,False,False,False,False,111,0.0-285.0,0,1345,[1],stimuli/1000111.jpg,352431,prediction_trial,310,image-keyboard-response,
215,Experiment 3,True,1,False,True,010,1,1,False,False,False,False,110,0.0-287.0,1,676,[1],stimuli/1010110.jpg,353540,prediction_trial,312,image-keyboard-response,
215,Experiment 3,True,1,False,True,001,2,2,False,False,False,False,101,0.0-289.0,2,793,[2],stimuli/2001101.jpg,354696,prediction_trial,314,image-keyboard-response,
215,Experiment 3,True,1,False,True,010,1,1,False,True,True,True,101,0.0-291.0,1,480,[1],stimuli/1010101.jpg,355490,prediction_trial,316,image-keyboard-response,
194,Experiment 3,True,1,False,True,010,1,1,False,True,True,True,100,0.0-5.0,1,2686,[1],stimuli/1010100.jpg,261460,prediction_trial,30,image-keyboard-response,
194,Experiment 3,True,1,True,True,000,2,2,True,True,True,True,000,0.0-7.0,2,1557,[2],stimuli/2000000.jpg,264667,prediction_trial,32,image-keyboard-response,
194,Experiment 3,True,1,True,True,100,1,1,False,True,False,True,010,0.0-9.0,1,1243,[1],stimuli/1100010.jpg,267737,prediction_trial,34,image-keyboard-response,
194,Experiment 3,False,0,False,True,100,0,0,False,False,False,False,111,0.0-11.0,1,3339,[0],stimuli/0100111.jpg,272571,prediction_trial,36,image-keyboard-response,
194,Experiment 3,True,1,True,True,010,2,2,True,True,True,True,110,0.0-13.0,2,2285,[2],stimuli/2010110.jpg,276300,prediction_trial,38,image-keyboard-response,
194,Experiment 3,True,1,False,False,101,0,0,False,False,False,False,101,0.0-15.0,0,2836,[0],stimuli/0101101.jpg,280266,prediction_trial,40,image-keyboard-response,
194,Experiment 3,True,1,False,False,101,0,0,False,False,True,True,001,0.0-17.0,0,3499,[0],stimuli/0101001.jpg,284873,prediction_trial,42,image-keyboard-response,
194,Experiment 3,False,0,False,True,010,1,1,False,False,False,False,111,0.0-19.0,2,3541,[1],stimuli/1010111.jpg,289715,prediction_trial,44,image-keyboard-response,
194,Experiment 3,True,1,True,True,001,0,0,True,True,True,True,000,0.0-21.0,0,2932,[0],stimuli/0001000.jpg,296259,prediction_trial,46,image-keyboard-response,
194,Experiment 3,True,1,False,False,111,0,0,False,False,True,True,010,0.0-23.0,0,1541,[0],stimuli/0111010.jpg,299019,prediction_trial,48,image-keyboard-response,
194,Experiment 3,True,1,True,True,000,1,1,True,True,True,True,100,0.0-25.0,1,2146,[1],stimuli/1000100.jpg,302384,prediction_trial,50,image-keyboard-response,
194,Experiment 3,False,0,False,False,111,0,0,False,False,False,False,101,0.0-27.0,2,1267,[0],stimuli/0111101.jpg,305005,prediction_trial,52,image-keyboard-response,
194,Experiment 3,True,1,True,True,001,1,1,False,False,False,False,111,0.0-29.0,1,1685,[1],stimuli/1001111.jpg,309823,prediction_trial,54,image-keyboard-response,
194,Experiment 3,True,1,False,False,110,0,0,False,False,False,False,111,0.0-31.0,0,2781,[0],stimuli/0110111.jpg,314303,prediction_trial,56,image-keyboard-response,
194,Experiment 3,False,0,True,True,011,0,0,False,False,False,False,110,0.0-33.0,1,2653,[0],stimuli/0011110.jpg,318366,prediction_trial,58,image-keyboard-response,
194,Experiment 3,True,1,False,False,101,0,0,False,False,False,True,100,0.0-35.0,0,1637,[0],stimuli/0101100.jpg,322454,prediction_trial,60,image-keyboard-response,
194,Experiment 3,True,1,False,False,101,0,0,False,False,False,False,110,0.0-37.0,0,1308,[0],stimuli/0101110.jpg,325879,prediction_trial,62,image-keyboard-response,
194,Experiment 3,False,0,True,True,001,0,0,False,False,False,False,111,0.0-39.0,2,3845,[0],stimuli/0001111.jpg,331287,prediction_trial,64,image-keyboard-response,
194,Experiment 3,True,1,True,True,100,1,1,True,True,True,True,100,0.0-41.0,1,2070,[1],stimuli/1100100.jpg,335256,prediction_trial,66,image-keyboard-response,
194,Experiment 3,False,0,False,False,110,1,1,False,False,False,False,011,0.0-43.0,2,2190,[1],stimuli/1110011.jpg,339327,prediction_trial,68,image-keyboard-response,
194,Experiment 3,True,1,True,True,101,1,1,False,False,False,False,111,0.0-45.0,1,3221,[1],stimuli/1101111.jpg,345807,prediction_trial,70,image-keyboard-response,
194,Experiment 3,True,1,False,False,110,1,1,False,False,True,True,101,0.0-47.0,1,2661,[1],stimuli/1110101.jpg,349206,prediction_trial,72,image-keyboard-response,
194,Experiment 3,True,1,True,True,001,0,0,False,True,False,True,100,0.0-49.0,0,2045,[0],stimuli/0001100.jpg,352294,prediction_trial,74,image-keyboard-response,
194,Experiment 3,True,1,True,True,100,1,1,True,True,True,True,000,0.0-51.0,1,1357,[1],stimuli/1100000.jpg,354934,prediction_trial,76,image-keyboard-response,
194,Experiment 3,False,0,True,True,001,0,0,False,False,False,False,110,0.0-53.0,1,1515,[0],stimuli/0001110.jpg,357917,prediction_trial,78,image-keyboard-response,
194,Experiment 3,True,1,False,True,100,0,0,False,False,False,False,101,0.0-55.0,0,2361,[0],stimuli/0100101.jpg,362426,prediction_trial,80,image-keyboard-response,
194,Experiment 3,True,1,False,False,011,1,1,False,False,True,True,001,0.0-57.0,1,1462,[1],stimuli/1011001.jpg,364683,prediction_trial,82,image-keyboard-response,
194,Experiment 3,False,0,True,True,000,0,0,False,False,False,False,110,0.0-59.0,1,3196,[0],stimuli/0000110.jpg,369017,prediction_trial,84,image-keyboard-response,
194,Experiment 3,True,1,False,False,111,0,0,False,False,True,True,000,0.0-61.0,0,1321,[0],stimuli/0111000.jpg,371826,prediction_trial,86,image-keyboard-response,
194,Experiment 3,True,1,True,True,101,1,1,False,False,False,False,110,0.0-63.0,1,1541,[1],stimuli/1101110.jpg,374746,prediction_trial,88,image-keyboard-response,
194,Experiment 3,True,1,True,True,100,1,1,False,False,False,False,110,0.0-65.0,1,3946,[1],stimuli/1100110.jpg,379699,prediction_trial,90,image-keyboard-response,
194,Experiment 3,True,1,False,False,110,1,1,False,False,False,False,111,0.0-67.0,1,3203,[1],stimuli/1110111.jpg,384096,prediction_trial,92,image-keyboard-response,
194,Experiment 3,True,1,True,True,010,0,0,False,True,False,True,100,0.0-69.0,0,1358,[0],stimuli/0010100.jpg,386760,prediction_trial,94,image-keyboard-response,
194,Experiment 3,True,1,False,False,110,0,0,False,False,False,True,100,0.0-71.0,0,2079,[0],stimuli/0110100.jpg,390176,prediction_trial,96,image-keyboard-response,
